success,timeout,failed_images,failed_audio,failed_video,trial_type,trial_index,time_elapsed,internal_node_id,run_id,condition,recorded_at,source_code_version,ip,user_agent,device,browser,browser_version,platform,platform_version,referer,accept_language,ID,view_history,rt,stimulus,response,typeoftrial,sentence,novel1,novel2,correct,cue,target,prime,type,relatedness,correct_key,block_number,age,gender,education,question_order,race,hispanic,dominant_hand,alert_time,english
true,false,[],[],[],preload,0,728,0.0-0.0,14,1,2024-11-10 19:21:47,d0209be0fc88a1685760e50ce4bd9d30,139.140.221.77,"Mozilla/5.0 (Macintosh; Intel Mac OS X 10_15_7) AppleWebKit/537.36 (KHTML, like Gecko) Chrome/130.0.0.0 Safari/537.36",Macintosh,Chrome,130.0.0.0,OS X,10_15_7,https://w1usnqdc0c.cognition.run/,"en-US,en;q=0.9",955531657,,,,,,,,,,,,,,,,,,,,,,,,,
,,,,,instructions,1,42481,0.0-1.0,14,1,2024-11-10 19:21:47,d0209be0fc88a1685760e50ce4bd9d30,139.140.221.77,"Mozilla/5.0 (Macintosh; Intel Mac OS X 10_15_7) AppleWebKit/537.36 (KHTML, like Gecko) Chrome/130.0.0.0 Safari/537.36",Macintosh,Chrome,130.0.0.0,OS X,10_15_7,https://w1usnqdc0c.cognition.run/,"en-US,en;q=0.9",955531657,"[{""page_index"":0,""viewing_time"":17403},{""page_index"":1,""viewing_time"":19232},{""page_index"":2,""viewing_time"":5116}]",41751,,,,,,,,,,,,,,,,,,,,,,,
,,,,,html-keyboard-response,2,49115,0.0-2.0-0.0-0.0,14,1,2024-11-10 19:21:47,d0209be0fc88a1685760e50ce4bd9d30,139.140.221.77,"Mozilla/5.0 (Macintosh; Intel Mac OS X 10_15_7) AppleWebKit/537.36 (KHTML, like Gecko) Chrome/130.0.0.0 Safari/537.36",Macintosh,Chrome,130.0.0.0,OS X,10_15_7,https://w1usnqdc0c.cognition.run/,"en-US,en;q=0.9",955531657,,6632,I would really love to have a zock rock.," ",sentence,I would really love to have a zock rock.,zock,NOT_FOUND,,,,,,,,,,,,,,,,,
,,,,,html-keyboard-response,3,54215,0.0-2.0-0.0-0.1,14,1,2024-11-10 19:21:47,d0209be0fc88a1685760e50ce4bd9d30,139.140.221.77,"Mozilla/5.0 (Macintosh; Intel Mac OS X 10_15_7) AppleWebKit/537.36 (KHTML, like Gecko) Chrome/130.0.0.0 Safari/537.36",Macintosh,Chrome,130.0.0.0,OS X,10_15_7,https://w1usnqdc0c.cognition.run/,"en-US,en;q=0.9",955531657,,5097,You never know with fash cash.," ",sentence,You never know with fash cash.,fash,NOT_FOUND,,,,,,,,,,,,,,,,,
,,,,,html-keyboard-response,4,62764,0.0-2.0-0.0-0.2,14,1,2024-11-10 19:21:47,d0209be0fc88a1685760e50ce4bd9d30,139.140.221.77,"Mozilla/5.0 (Macintosh; Intel Mac OS X 10_15_7) AppleWebKit/537.36 (KHTML, like Gecko) Chrome/130.0.0.0 Safari/537.36",Macintosh,Chrome,130.0.0.0,OS X,10_15_7,https://w1usnqdc0c.cognition.run/,"en-US,en;q=0.9",955531657,,8547,"On the eleventh day of my trip, I found fash cash."," ",sentence,"On the eleventh day of my trip, I found fash cash.",fash,NOT_FOUND,,,,,,,,,,,,,,,,,
,,,,,html-keyboard-response,5,68562,0.0-2.0-0.0-0.3,14,1,2024-11-10 19:21:47,d0209be0fc88a1685760e50ce4bd9d30,139.140.221.77,"Mozilla/5.0 (Macintosh; Intel Mac OS X 10_15_7) AppleWebKit/537.36 (KHTML, like Gecko) Chrome/130.0.0.0 Safari/537.36",Macintosh,Chrome,130.0.0.0,OS X,10_15_7,https://w1usnqdc0c.cognition.run/,"en-US,en;q=0.9",955531657,,5797,I am not sure if I would like fash cash better.," ",sentence,I am not sure if I would like fash cash better.,fash,NOT_FOUND,,,,,,,,,,,,,,,,,
,,,,,html-keyboard-response,6,73503,0.0-2.0-0.0-0.4,14,1,2024-11-10 19:21:47,d0209be0fc88a1685760e50ce4bd9d30,139.140.221.77,"Mozilla/5.0 (Macintosh; Intel Mac OS X 10_15_7) AppleWebKit/537.36 (KHTML, like Gecko) Chrome/130.0.0.0 Safari/537.36",Macintosh,Chrome,130.0.0.0,OS X,10_15_7,https://w1usnqdc0c.cognition.run/,"en-US,en;q=0.9",955531657,,4939,Maybe I would prefer a zock rock.," ",sentence,Maybe I would prefer a zock rock.,zock,NOT_FOUND,,,,,,,,,,,,,,,,,
,,,,,html-keyboard-response,7,81757,0.0-2.0-0.0-0.5,14,1,2024-11-10 19:21:47,d0209be0fc88a1685760e50ce4bd9d30,139.140.221.77,"Mozilla/5.0 (Macintosh; Intel Mac OS X 10_15_7) AppleWebKit/537.36 (KHTML, like Gecko) Chrome/130.0.0.0 Safari/537.36",Macintosh,Chrome,130.0.0.0,OS X,10_15_7,https://w1usnqdc0c.cognition.run/,"en-US,en;q=0.9",955531657,,8252,Everybody I met in Zimziland would love to have a zock rock.," ",sentence,Everybody I met in Zimziland would love to have a zock rock.,zock,Zimziland,,,,,,,,,,,,,,,,,
,,,,,html-keyboard-response,8,86520,0.0-2.0-0.0-0.6,14,1,2024-11-10 19:21:47,d0209be0fc88a1685760e50ce4bd9d30,139.140.221.77,"Mozilla/5.0 (Macintosh; Intel Mac OS X 10_15_7) AppleWebKit/537.36 (KHTML, like Gecko) Chrome/130.0.0.0 Safari/537.36",Macintosh,Chrome,130.0.0.0,OS X,10_15_7,https://w1usnqdc0c.cognition.run/,"en-US,en;q=0.9",955531657,,4762,"She offered me fash cash, too."," ",sentence,"She offered me fash cash, too.",fash,NOT_FOUND,,,,,,,,,,,,,,,,,
,,,,,html-keyboard-response,9,91485,0.0-2.0-0.0-0.7,14,1,2024-11-10 19:21:47,d0209be0fc88a1685760e50ce4bd9d30,139.140.221.77,"Mozilla/5.0 (Macintosh; Intel Mac OS X 10_15_7) AppleWebKit/537.36 (KHTML, like Gecko) Chrome/130.0.0.0 Safari/537.36",Macintosh,Chrome,130.0.0.0,OS X,10_15_7,https://w1usnqdc0c.cognition.run/,"en-US,en;q=0.9",955531657,,4963,I hadn't seen fash cash for hours.," ",sentence,I hadn't seen fash cash for hours.,fash,NOT_FOUND,,,,,,,,,,,,,,,,,
,,,,,html-keyboard-response,10,95695,0.0-2.0-0.0-0.8,14,1,2024-11-10 19:21:47,d0209be0fc88a1685760e50ce4bd9d30,139.140.221.77,"Mozilla/5.0 (Macintosh; Intel Mac OS X 10_15_7) AppleWebKit/537.36 (KHTML, like Gecko) Chrome/130.0.0.0 Safari/537.36",Macintosh,Chrome,130.0.0.0,OS X,10_15_7,https://w1usnqdc0c.cognition.run/,"en-US,en;q=0.9",955531657,,4208,I went to Zimziland because I heard you can get a zock rock  there.," ",sentence,I went to Zimziland because I heard you can get a zock rock  there.,zock,Zimziland,,,,,,,,,,,,,,,,,
,,,,,html-keyboard-response,11,98222,0.0-2.0-0.0-0.9,14,1,2024-11-10 19:21:47,d0209be0fc88a1685760e50ce4bd9d30,139.140.221.77,"Mozilla/5.0 (Macintosh; Intel Mac OS X 10_15_7) AppleWebKit/537.36 (KHTML, like Gecko) Chrome/130.0.0.0 Safari/537.36",Macintosh,Chrome,130.0.0.0,OS X,10_15_7,https://w1usnqdc0c.cognition.run/,"en-US,en;q=0.9",955531657,,2525,I only found fash cash.," ",sentence,I only found fash cash.,fash,NOT_FOUND,,,,,,,,,,,,,,,,,
,,,,,html-keyboard-response,12,103287,0.0-2.0-0.0-0.10,14,1,2024-11-10 19:21:47,d0209be0fc88a1685760e50ce4bd9d30,139.140.221.77,"Mozilla/5.0 (Macintosh; Intel Mac OS X 10_15_7) AppleWebKit/537.36 (KHTML, like Gecko) Chrome/130.0.0.0 Safari/537.36",Macintosh,Chrome,130.0.0.0,OS X,10_15_7,https://w1usnqdc0c.cognition.run/,"en-US,en;q=0.9",955531657,,5064,My sister doesn't like to have a zock rock.," ",sentence,My sister doesn't like to have a zock rock.,zock,NOT_FOUND,,,,,,,,,,,,,,,,,
,,,,,html-keyboard-response,13,111667,0.0-2.0-0.0-0.11,14,1,2024-11-10 19:21:47,d0209be0fc88a1685760e50ce4bd9d30,139.140.221.77,"Mozilla/5.0 (Macintosh; Intel Mac OS X 10_15_7) AppleWebKit/537.36 (KHTML, like Gecko) Chrome/130.0.0.0 Safari/537.36",Macintosh,Chrome,130.0.0.0,OS X,10_15_7,https://w1usnqdc0c.cognition.run/,"en-US,en;q=0.9",955531657,,8379,The people I met there told me they saw a zock rock that day.," ",sentence,The people I met there told me they saw a zock rock that day.,zock,NOT_FOUND,,,,,,,,,,,,,,,,,
,,,,,html-keyboard-response,14,115646,0.0-2.0-0.0-0.12,14,1,2024-11-10 19:21:47,d0209be0fc88a1685760e50ce4bd9d30,139.140.221.77,"Mozilla/5.0 (Macintosh; Intel Mac OS X 10_15_7) AppleWebKit/537.36 (KHTML, like Gecko) Chrome/130.0.0.0 Safari/537.36",Macintosh,Chrome,130.0.0.0,OS X,10_15_7,https://w1usnqdc0c.cognition.run/,"en-US,en;q=0.9",955531657,,3977,I have a picture of a fash cash.," ",sentence,I have a picture of a fash cash.,fash,NOT_FOUND,,,,,,,,,,,,,,,,,
,,,,,html-keyboard-response,15,119683,0.0-2.0-0.0-0.13,14,1,2024-11-10 19:21:47,d0209be0fc88a1685760e50ce4bd9d30,139.140.221.77,"Mozilla/5.0 (Macintosh; Intel Mac OS X 10_15_7) AppleWebKit/537.36 (KHTML, like Gecko) Chrome/130.0.0.0 Safari/537.36",Macintosh,Chrome,130.0.0.0,OS X,10_15_7,https://w1usnqdc0c.cognition.run/,"en-US,en;q=0.9",955531657,,4035,"There is no doubt, fash cash is the best!"," ",sentence,"There is no doubt, fash cash is the best!",fash,NOT_FOUND,,,,,,,,,,,,,,,,,
,,,,,html-keyboard-response,16,121772,0.0-2.0-0.0-0.14,14,1,2024-11-10 19:21:47,d0209be0fc88a1685760e50ce4bd9d30,139.140.221.77,"Mozilla/5.0 (Macintosh; Intel Mac OS X 10_15_7) AppleWebKit/537.36 (KHTML, like Gecko) Chrome/130.0.0.0 Safari/537.36",Macintosh,Chrome,130.0.0.0,OS X,10_15_7,https://w1usnqdc0c.cognition.run/,"en-US,en;q=0.9",955531657,,2087,One lady offered me a zock rock.," ",sentence,One lady offered me a zock rock.,zock,NOT_FOUND,,,,,,,,,,,,,,,,,
,,,,,survey-text,17,129217,0.0-2.0-0.0-1.14-0.14,14,1,2024-11-10 19:21:47,d0209be0fc88a1685760e50ce4bd9d30,139.140.221.77,"Mozilla/5.0 (Macintosh; Intel Mac OS X 10_15_7) AppleWebKit/537.36 (KHTML, like Gecko) Chrome/130.0.0.0 Safari/537.36",Macintosh,Chrome,130.0.0.0,OS X,10_15_7,https://w1usnqdc0c.cognition.run/,"en-US,en;q=0.9",955531657,,7439,,fash,attention,,zock,NOT_FOUND,0,,,,,,,,,,,,,,,,
,,,,,html-keyboard-response,18,134527,0.0-2.0-0.0-0.15,14,1,2024-11-10 19:21:47,d0209be0fc88a1685760e50ce4bd9d30,139.140.221.77,"Mozilla/5.0 (Macintosh; Intel Mac OS X 10_15_7) AppleWebKit/537.36 (KHTML, like Gecko) Chrome/130.0.0.0 Safari/537.36",Macintosh,Chrome,130.0.0.0,OS X,10_15_7,https://w1usnqdc0c.cognition.run/,"en-US,en;q=0.9",955531657,,5309,I went to a place where it's easy to find a zock rock.," ",sentence,I went to a place where it's easy to find a zock rock.,zock,NOT_FOUND,,,,,,,,,,,,,,,,,
,,,,,html-keyboard-response,19,136307,0.0-2.0-0.0-0.16,14,1,2024-11-10 19:21:47,d0209be0fc88a1685760e50ce4bd9d30,139.140.221.77,"Mozilla/5.0 (Macintosh; Intel Mac OS X 10_15_7) AppleWebKit/537.36 (KHTML, like Gecko) Chrome/130.0.0.0 Safari/537.36",Macintosh,Chrome,130.0.0.0,OS X,10_15_7,https://w1usnqdc0c.cognition.run/,"en-US,en;q=0.9",955531657,,1778,"As soon as I arrived, I noticed a zock rock."," ",sentence,"As soon as I arrived, I noticed a zock rock.",zock,NOT_FOUND,,,,,,,,,,,,,,,,,
,,,,,html-keyboard-response,20,137923,0.0-2.0-0.0-0.17,14,1,2024-11-10 19:21:47,d0209be0fc88a1685760e50ce4bd9d30,139.140.221.77,"Mozilla/5.0 (Macintosh; Intel Mac OS X 10_15_7) AppleWebKit/537.36 (KHTML, like Gecko) Chrome/130.0.0.0 Safari/537.36",Macintosh,Chrome,130.0.0.0,OS X,10_15_7,https://w1usnqdc0c.cognition.run/,"en-US,en;q=0.9",955531657,,1615,I would love to see fash cash.," ",sentence,I would love to see fash cash.,fash,NOT_FOUND,,,,,,,,,,,,,,,,,
,,,,,html-keyboard-response,21,140410,0.0-2.0-0.0-0.18,14,1,2024-11-10 19:21:47,d0209be0fc88a1685760e50ce4bd9d30,139.140.221.77,"Mozilla/5.0 (Macintosh; Intel Mac OS X 10_15_7) AppleWebKit/537.36 (KHTML, like Gecko) Chrome/130.0.0.0 Safari/537.36",Macintosh,Chrome,130.0.0.0,OS X,10_15_7,https://w1usnqdc0c.cognition.run/,"en-US,en;q=0.9",955531657,,2485,There are people who prefer fash cash.," ",sentence,There are people who prefer fash cash.,fash,NOT_FOUND,,,,,,,,,,,,,,,,,
,,,,,html-keyboard-response,22,143565,0.0-2.0-0.0-0.19,14,1,2024-11-10 19:21:47,d0209be0fc88a1685760e50ce4bd9d30,139.140.221.77,"Mozilla/5.0 (Macintosh; Intel Mac OS X 10_15_7) AppleWebKit/537.36 (KHTML, like Gecko) Chrome/130.0.0.0 Safari/537.36",Macintosh,Chrome,130.0.0.0,OS X,10_15_7,https://w1usnqdc0c.cognition.run/,"en-US,en;q=0.9",955531657,,3154,"In the end, I decided I'd go looking for a zock rock."," ",sentence,"In the end, I decided I'd go looking for a zock rock.",zock,NOT_FOUND,,,,,,,,,,,,,,,,,
,,,,,instructions,23,165350,0.0-2.0-1.0,14,1,2024-11-10 19:21:47,d0209be0fc88a1685760e50ce4bd9d30,139.140.221.77,"Mozilla/5.0 (Macintosh; Intel Mac OS X 10_15_7) AppleWebKit/537.36 (KHTML, like Gecko) Chrome/130.0.0.0 Safari/537.36",Macintosh,Chrome,130.0.0.0,OS X,10_15_7,https://w1usnqdc0c.cognition.run/,"en-US,en;q=0.9",955531657,"[{""page_index"":0,""viewing_time"":21783}]",21783,,,,,,,,,,,,,,,,,,,,,,,
,,,,,html-keyboard-response,24,165853,0.0-2.0-2.0-0.0,14,1,2024-11-10 19:21:47,d0209be0fc88a1685760e50ce4bd9d30,139.140.221.77,"Mozilla/5.0 (Macintosh; Intel Mac OS X 10_15_7) AppleWebKit/537.36 (KHTML, like Gecko) Chrome/130.0.0.0 Safari/537.36",Macintosh,Chrome,130.0.0.0,OS X,10_15_7,https://w1usnqdc0c.cognition.run/,"en-US,en;q=0.9",955531657,,null,<span style = 'font-size:200%'>+</span>,null,fixation,,,,,,,,,,,,,,,,,,,,
,,,,,survey-text,25,171201,0.0-2.0-2.0-1.0,14,1,2024-11-10 19:21:47,d0209be0fc88a1685760e50ce4bd9d30,139.140.221.77,"Mozilla/5.0 (Macintosh; Intel Mac OS X 10_15_7) AppleWebKit/537.36 (KHTML, like Gecko) Chrome/130.0.0.0 Safari/537.36",Macintosh,Chrome,130.0.0.0,OS X,10_15_7,https://w1usnqdc0c.cognition.run/,"en-US,en;q=0.9",955531657,,5344,,rock,association,,,,,zock,,,,,,,,,,,,,,,
,,,,,html-keyboard-response,26,171703,0.0-2.0-2.0-0.1,14,1,2024-11-10 19:21:47,d0209be0fc88a1685760e50ce4bd9d30,139.140.221.77,"Mozilla/5.0 (Macintosh; Intel Mac OS X 10_15_7) AppleWebKit/537.36 (KHTML, like Gecko) Chrome/130.0.0.0 Safari/537.36",Macintosh,Chrome,130.0.0.0,OS X,10_15_7,https://w1usnqdc0c.cognition.run/,"en-US,en;q=0.9",955531657,,null,<span style = 'font-size:200%'>+</span>,null,fixation,,,,,,,,,,,,,,,,,,,,
,,,,,survey-text,27,175034,0.0-2.0-2.0-1.1,14,1,2024-11-10 19:21:47,d0209be0fc88a1685760e50ce4bd9d30,139.140.221.77,"Mozilla/5.0 (Macintosh; Intel Mac OS X 10_15_7) AppleWebKit/537.36 (KHTML, like Gecko) Chrome/130.0.0.0 Safari/537.36",Macintosh,Chrome,130.0.0.0,OS X,10_15_7,https://w1usnqdc0c.cognition.run/,"en-US,en;q=0.9",955531657,,3327,,cash,association,,,,,fash,,,,,,,,,,,,,,,
,,,,,html-keyboard-response,28,175535,0.0-2.0-2.0-0.2,14,1,2024-11-10 19:21:47,d0209be0fc88a1685760e50ce4bd9d30,139.140.221.77,"Mozilla/5.0 (Macintosh; Intel Mac OS X 10_15_7) AppleWebKit/537.36 (KHTML, like Gecko) Chrome/130.0.0.0 Safari/537.36",Macintosh,Chrome,130.0.0.0,OS X,10_15_7,https://w1usnqdc0c.cognition.run/,"en-US,en;q=0.9",955531657,,null,<span style = 'font-size:200%'>+</span>,null,fixation,,,,,,,,,,,,,,,,,,,,
,,,,,survey-text,29,179967,0.0-2.0-2.0-1.2,14,1,2024-11-10 19:21:47,d0209be0fc88a1685760e50ce4bd9d30,139.140.221.77,"Mozilla/5.0 (Macintosh; Intel Mac OS X 10_15_7) AppleWebKit/537.36 (KHTML, like Gecko) Chrome/130.0.0.0 Safari/537.36",Macintosh,Chrome,130.0.0.0,OS X,10_15_7,https://w1usnqdc0c.cognition.run/,"en-US,en;q=0.9",955531657,,4428,,cash,association,,,,,fash,,,,,,,,,,,,,,,
,,,,,html-keyboard-response,30,180469,0.0-2.0-2.0-0.3,14,1,2024-11-10 19:21:47,d0209be0fc88a1685760e50ce4bd9d30,139.140.221.77,"Mozilla/5.0 (Macintosh; Intel Mac OS X 10_15_7) AppleWebKit/537.36 (KHTML, like Gecko) Chrome/130.0.0.0 Safari/537.36",Macintosh,Chrome,130.0.0.0,OS X,10_15_7,https://w1usnqdc0c.cognition.run/,"en-US,en;q=0.9",955531657,,null,<span style = 'font-size:200%'>+</span>,null,fixation,,,,,,,,,,,,,,,,,,,,
,,,,,survey-text,31,182866,0.0-2.0-2.0-1.3,14,1,2024-11-10 19:21:47,d0209be0fc88a1685760e50ce4bd9d30,139.140.221.77,"Mozilla/5.0 (Macintosh; Intel Mac OS X 10_15_7) AppleWebKit/537.36 (KHTML, like Gecko) Chrome/130.0.0.0 Safari/537.36",Macintosh,Chrome,130.0.0.0,OS X,10_15_7,https://w1usnqdc0c.cognition.run/,"en-US,en;q=0.9",955531657,,2392,,rock,association,,,,,zock,,,,,,,,,,,,,,,
,,,,,html-keyboard-response,32,183368,0.0-2.0-2.0-0.4,14,1,2024-11-10 19:21:47,d0209be0fc88a1685760e50ce4bd9d30,139.140.221.77,"Mozilla/5.0 (Macintosh; Intel Mac OS X 10_15_7) AppleWebKit/537.36 (KHTML, like Gecko) Chrome/130.0.0.0 Safari/537.36",Macintosh,Chrome,130.0.0.0,OS X,10_15_7,https://w1usnqdc0c.cognition.run/,"en-US,en;q=0.9",955531657,,null,<span style = 'font-size:200%'>+</span>,null,fixation,,,,,,,,,,,,,,,,,,,,
,,,,,survey-text,33,185584,0.0-2.0-2.0-1.4,14,1,2024-11-10 19:21:47,d0209be0fc88a1685760e50ce4bd9d30,139.140.221.77,"Mozilla/5.0 (Macintosh; Intel Mac OS X 10_15_7) AppleWebKit/537.36 (KHTML, like Gecko) Chrome/130.0.0.0 Safari/537.36",Macintosh,Chrome,130.0.0.0,OS X,10_15_7,https://w1usnqdc0c.cognition.run/,"en-US,en;q=0.9",955531657,,2211,,cash,association,,,,,fash,,,,,,,,,,,,,,,
,,,,,html-keyboard-response,34,186086,0.0-2.0-2.0-0.5,14,1,2024-11-10 19:21:47,d0209be0fc88a1685760e50ce4bd9d30,139.140.221.77,"Mozilla/5.0 (Macintosh; Intel Mac OS X 10_15_7) AppleWebKit/537.36 (KHTML, like Gecko) Chrome/130.0.0.0 Safari/537.36",Macintosh,Chrome,130.0.0.0,OS X,10_15_7,https://w1usnqdc0c.cognition.run/,"en-US,en;q=0.9",955531657,,null,<span style = 'font-size:200%'>+</span>,null,fixation,,,,,,,,,,,,,,,,,,,,
,,,,,survey-text,35,189251,0.0-2.0-2.0-1.5,14,1,2024-11-10 19:21:47,d0209be0fc88a1685760e50ce4bd9d30,139.140.221.77,"Mozilla/5.0 (Macintosh; Intel Mac OS X 10_15_7) AppleWebKit/537.36 (KHTML, like Gecko) Chrome/130.0.0.0 Safari/537.36",Macintosh,Chrome,130.0.0.0,OS X,10_15_7,https://w1usnqdc0c.cognition.run/,"en-US,en;q=0.9",955531657,,3160,,rock,association,,,,,zock,,,,,,,,,,,,,,,
,,,,,instructions,36,193333,0.0-2.0-3.0,14,1,2024-11-10 19:21:47,d0209be0fc88a1685760e50ce4bd9d30,139.140.221.77,"Mozilla/5.0 (Macintosh; Intel Mac OS X 10_15_7) AppleWebKit/537.36 (KHTML, like Gecko) Chrome/130.0.0.0 Safari/537.36",Macintosh,Chrome,130.0.0.0,OS X,10_15_7,https://w1usnqdc0c.cognition.run/,"en-US,en;q=0.9",955531657,"[{""page_index"":0,""viewing_time"":1765},{""page_index"":1,""viewing_time"":2317}]",4082,,,,,,,,,,,,,,,,,,,,,,,
,,,,,html-keyboard-response,37,195192,0.0-2.0-4.0-0.0,14,1,2024-11-10 19:21:47,d0209be0fc88a1685760e50ce4bd9d30,139.140.221.77,"Mozilla/5.0 (Macintosh; Intel Mac OS X 10_15_7) AppleWebKit/537.36 (KHTML, like Gecko) Chrome/130.0.0.0 Safari/537.36",Macintosh,Chrome,130.0.0.0,OS X,10_15_7,https://w1usnqdc0c.cognition.run/,"en-US,en;q=0.9",955531657,,1857,"She offered me fash cash, too."," ",sentence,"She offered me fash cash, too.",fash,NOT_FOUND,,,,,,,,,,,,,,,,,
,,,,,html-keyboard-response,38,197946,0.0-2.0-4.0-0.1,14,1,2024-11-10 19:21:47,d0209be0fc88a1685760e50ce4bd9d30,139.140.221.77,"Mozilla/5.0 (Macintosh; Intel Mac OS X 10_15_7) AppleWebKit/537.36 (KHTML, like Gecko) Chrome/130.0.0.0 Safari/537.36",Macintosh,Chrome,130.0.0.0,OS X,10_15_7,https://w1usnqdc0c.cognition.run/,"en-US,en;q=0.9",955531657,,2752,You never know with fash cash.," ",sentence,You never know with fash cash.,fash,NOT_FOUND,,,,,,,,,,,,,,,,,
,,,,,html-keyboard-response,39,201143,0.0-2.0-4.0-0.2,14,1,2024-11-10 19:21:47,d0209be0fc88a1685760e50ce4bd9d30,139.140.221.77,"Mozilla/5.0 (Macintosh; Intel Mac OS X 10_15_7) AppleWebKit/537.36 (KHTML, like Gecko) Chrome/130.0.0.0 Safari/537.36",Macintosh,Chrome,130.0.0.0,OS X,10_15_7,https://w1usnqdc0c.cognition.run/,"en-US,en;q=0.9",955531657,,3195,"On the eleventh day of my trip, I found fash cash."," ",sentence,"On the eleventh day of my trip, I found fash cash.",fash,NOT_FOUND,,,,,,,,,,,,,,,,,
,,,,,html-keyboard-response,40,203524,0.0-2.0-4.0-0.3,14,1,2024-11-10 19:21:47,d0209be0fc88a1685760e50ce4bd9d30,139.140.221.77,"Mozilla/5.0 (Macintosh; Intel Mac OS X 10_15_7) AppleWebKit/537.36 (KHTML, like Gecko) Chrome/130.0.0.0 Safari/537.36",Macintosh,Chrome,130.0.0.0,OS X,10_15_7,https://w1usnqdc0c.cognition.run/,"en-US,en;q=0.9",955531657,,2379,"In the end, I decided I'd go looking for a zock rock."," ",sentence,"In the end, I decided I'd go looking for a zock rock.",zock,NOT_FOUND,,,,,,,,,,,,,,,,,
,,,,,html-keyboard-response,41,206082,0.0-2.0-4.0-0.4,14,1,2024-11-10 19:21:47,d0209be0fc88a1685760e50ce4bd9d30,139.140.221.77,"Mozilla/5.0 (Macintosh; Intel Mac OS X 10_15_7) AppleWebKit/537.36 (KHTML, like Gecko) Chrome/130.0.0.0 Safari/537.36",Macintosh,Chrome,130.0.0.0,OS X,10_15_7,https://w1usnqdc0c.cognition.run/,"en-US,en;q=0.9",955531657,,2556,I hadn't seen fash cash for hours.," ",sentence,I hadn't seen fash cash for hours.,fash,NOT_FOUND,,,,,,,,,,,,,,,,,
,,,,,html-keyboard-response,42,207855,0.0-2.0-4.0-0.5,14,1,2024-11-10 19:21:47,d0209be0fc88a1685760e50ce4bd9d30,139.140.221.77,"Mozilla/5.0 (Macintosh; Intel Mac OS X 10_15_7) AppleWebKit/537.36 (KHTML, like Gecko) Chrome/130.0.0.0 Safari/537.36",Macintosh,Chrome,130.0.0.0,OS X,10_15_7,https://w1usnqdc0c.cognition.run/,"en-US,en;q=0.9",955531657,,1770,I only found fash cash.," ",sentence,I only found fash cash.,fash,NOT_FOUND,,,,,,,,,,,,,,,,,
,,,,,html-keyboard-response,43,209665,0.0-2.0-4.0-0.6,14,1,2024-11-10 19:21:47,d0209be0fc88a1685760e50ce4bd9d30,139.140.221.77,"Mozilla/5.0 (Macintosh; Intel Mac OS X 10_15_7) AppleWebKit/537.36 (KHTML, like Gecko) Chrome/130.0.0.0 Safari/537.36",Macintosh,Chrome,130.0.0.0,OS X,10_15_7,https://w1usnqdc0c.cognition.run/,"en-US,en;q=0.9",955531657,,1808,One lady offered me a zock rock.," ",sentence,One lady offered me a zock rock.,zock,NOT_FOUND,,,,,,,,,,,,,,,,,
,,,,,html-keyboard-response,44,211456,0.0-2.0-4.0-0.7,14,1,2024-11-10 19:21:47,d0209be0fc88a1685760e50ce4bd9d30,139.140.221.77,"Mozilla/5.0 (Macintosh; Intel Mac OS X 10_15_7) AppleWebKit/537.36 (KHTML, like Gecko) Chrome/130.0.0.0 Safari/537.36",Macintosh,Chrome,130.0.0.0,OS X,10_15_7,https://w1usnqdc0c.cognition.run/,"en-US,en;q=0.9",955531657,,1789,My sister doesn't like to have a zock rock.," ",sentence,My sister doesn't like to have a zock rock.,zock,NOT_FOUND,,,,,,,,,,,,,,,,,
,,,,,html-keyboard-response,45,213355,0.0-2.0-4.0-0.8,14,1,2024-11-10 19:21:47,d0209be0fc88a1685760e50ce4bd9d30,139.140.221.77,"Mozilla/5.0 (Macintosh; Intel Mac OS X 10_15_7) AppleWebKit/537.36 (KHTML, like Gecko) Chrome/130.0.0.0 Safari/537.36",Macintosh,Chrome,130.0.0.0,OS X,10_15_7,https://w1usnqdc0c.cognition.run/,"en-US,en;q=0.9",955531657,,1898,I went to a place where it's easy to find a zock rock.," ",sentence,I went to a place where it's easy to find a zock rock.,zock,NOT_FOUND,,,,,,,,,,,,,,,,,
,,,,,html-keyboard-response,46,215150,0.0-2.0-4.0-0.9,14,1,2024-11-10 19:21:47,d0209be0fc88a1685760e50ce4bd9d30,139.140.221.77,"Mozilla/5.0 (Macintosh; Intel Mac OS X 10_15_7) AppleWebKit/537.36 (KHTML, like Gecko) Chrome/130.0.0.0 Safari/537.36",Macintosh,Chrome,130.0.0.0,OS X,10_15_7,https://w1usnqdc0c.cognition.run/,"en-US,en;q=0.9",955531657,,1793,There are people who prefer fash cash.," ",sentence,There are people who prefer fash cash.,fash,NOT_FOUND,,,,,,,,,,,,,,,,,
,,,,,html-keyboard-response,47,217617,0.0-2.0-4.0-0.10,14,1,2024-11-10 19:21:47,d0209be0fc88a1685760e50ce4bd9d30,139.140.221.77,"Mozilla/5.0 (Macintosh; Intel Mac OS X 10_15_7) AppleWebKit/537.36 (KHTML, like Gecko) Chrome/130.0.0.0 Safari/537.36",Macintosh,Chrome,130.0.0.0,OS X,10_15_7,https://w1usnqdc0c.cognition.run/,"en-US,en;q=0.9",955531657,,2465,"As soon as I arrived, I noticed a zock rock."," ",sentence,"As soon as I arrived, I noticed a zock rock.",zock,NOT_FOUND,,,,,,,,,,,,,,,,,
,,,,,html-keyboard-response,48,219233,0.0-2.0-4.0-0.11,14,1,2024-11-10 19:21:47,d0209be0fc88a1685760e50ce4bd9d30,139.140.221.77,"Mozilla/5.0 (Macintosh; Intel Mac OS X 10_15_7) AppleWebKit/537.36 (KHTML, like Gecko) Chrome/130.0.0.0 Safari/537.36",Macintosh,Chrome,130.0.0.0,OS X,10_15_7,https://w1usnqdc0c.cognition.run/,"en-US,en;q=0.9",955531657,,1613,Maybe I would prefer a zock rock.," ",sentence,Maybe I would prefer a zock rock.,zock,NOT_FOUND,,,,,,,,,,,,,,,,,
,,,,,html-keyboard-response,49,221288,0.0-2.0-4.0-0.12,14,1,2024-11-10 19:21:47,d0209be0fc88a1685760e50ce4bd9d30,139.140.221.77,"Mozilla/5.0 (Macintosh; Intel Mac OS X 10_15_7) AppleWebKit/537.36 (KHTML, like Gecko) Chrome/130.0.0.0 Safari/537.36",Macintosh,Chrome,130.0.0.0,OS X,10_15_7,https://w1usnqdc0c.cognition.run/,"en-US,en;q=0.9",955531657,,2052,I would really love to have a zock rock.," ",sentence,I would really love to have a zock rock.,zock,NOT_FOUND,,,,,,,,,,,,,,,,,
,,,,,html-keyboard-response,50,224634,0.0-2.0-4.0-0.13,14,1,2024-11-10 19:21:47,d0209be0fc88a1685760e50ce4bd9d30,139.140.221.77,"Mozilla/5.0 (Macintosh; Intel Mac OS X 10_15_7) AppleWebKit/537.36 (KHTML, like Gecko) Chrome/130.0.0.0 Safari/537.36",Macintosh,Chrome,130.0.0.0,OS X,10_15_7,https://w1usnqdc0c.cognition.run/,"en-US,en;q=0.9",955531657,,3344,I went to Zimziland because I heard you can get a zock rock  there.," ",sentence,I went to Zimziland because I heard you can get a zock rock  there.,zock,Zimziland,,,,,,,,,,,,,,,,,
,,,,,html-keyboard-response,51,231784,0.0-2.0-4.0-0.14,14,1,2024-11-10 19:21:47,d0209be0fc88a1685760e50ce4bd9d30,139.140.221.77,"Mozilla/5.0 (Macintosh; Intel Mac OS X 10_15_7) AppleWebKit/537.36 (KHTML, like Gecko) Chrome/130.0.0.0 Safari/537.36",Macintosh,Chrome,130.0.0.0,OS X,10_15_7,https://w1usnqdc0c.cognition.run/,"en-US,en;q=0.9",955531657,,7148,The people I met there told me they saw a zock rock that day.," ",sentence,The people I met there told me they saw a zock rock that day.,zock,NOT_FOUND,,,,,,,,,,,,,,,,,
,,,,,survey-text,52,236518,0.0-2.0-4.0-1.14-0.14,14,1,2024-11-10 19:21:47,d0209be0fc88a1685760e50ce4bd9d30,139.140.221.77,"Mozilla/5.0 (Macintosh; Intel Mac OS X 10_15_7) AppleWebKit/537.36 (KHTML, like Gecko) Chrome/130.0.0.0 Safari/537.36",Macintosh,Chrome,130.0.0.0,OS X,10_15_7,https://w1usnqdc0c.cognition.run/,"en-US,en;q=0.9",955531657,,4730,,zock,attention,,zock,NOT_FOUND,1,,,,,,,,,,,,,,,,
,,,,,html-keyboard-response,53,239028,0.0-2.0-4.0-0.15,14,1,2024-11-10 19:21:47,d0209be0fc88a1685760e50ce4bd9d30,139.140.221.77,"Mozilla/5.0 (Macintosh; Intel Mac OS X 10_15_7) AppleWebKit/537.36 (KHTML, like Gecko) Chrome/130.0.0.0 Safari/537.36",Macintosh,Chrome,130.0.0.0,OS X,10_15_7,https://w1usnqdc0c.cognition.run/,"en-US,en;q=0.9",955531657,,2508,I am not sure if I would like fash cash better.," ",sentence,I am not sure if I would like fash cash better.,fash,NOT_FOUND,,,,,,,,,,,,,,,,,
,,,,,html-keyboard-response,54,240294,0.0-2.0-4.0-0.16,14,1,2024-11-10 19:21:47,d0209be0fc88a1685760e50ce4bd9d30,139.140.221.77,"Mozilla/5.0 (Macintosh; Intel Mac OS X 10_15_7) AppleWebKit/537.36 (KHTML, like Gecko) Chrome/130.0.0.0 Safari/537.36",Macintosh,Chrome,130.0.0.0,OS X,10_15_7,https://w1usnqdc0c.cognition.run/,"en-US,en;q=0.9",955531657,,1264,I would love to see fash cash.," ",sentence,I would love to see fash cash.,fash,NOT_FOUND,,,,,,,,,,,,,,,,,
,,,,,html-keyboard-response,55,241653,0.0-2.0-4.0-0.17,14,1,2024-11-10 19:21:47,d0209be0fc88a1685760e50ce4bd9d30,139.140.221.77,"Mozilla/5.0 (Macintosh; Intel Mac OS X 10_15_7) AppleWebKit/537.36 (KHTML, like Gecko) Chrome/130.0.0.0 Safari/537.36",Macintosh,Chrome,130.0.0.0,OS X,10_15_7,https://w1usnqdc0c.cognition.run/,"en-US,en;q=0.9",955531657,,1357,I have a picture of a fash cash.," ",sentence,I have a picture of a fash cash.,fash,NOT_FOUND,,,,,,,,,,,,,,,,,
,,,,,html-keyboard-response,56,243701,0.0-2.0-4.0-0.18,14,1,2024-11-10 19:21:47,d0209be0fc88a1685760e50ce4bd9d30,139.140.221.77,"Mozilla/5.0 (Macintosh; Intel Mac OS X 10_15_7) AppleWebKit/537.36 (KHTML, like Gecko) Chrome/130.0.0.0 Safari/537.36",Macintosh,Chrome,130.0.0.0,OS X,10_15_7,https://w1usnqdc0c.cognition.run/,"en-US,en;q=0.9",955531657,,2046,Everybody I met in Zimziland would love to have a zock rock.," ",sentence,Everybody I met in Zimziland would love to have a zock rock.,zock,Zimziland,,,,,,,,,,,,,,,,,
,,,,,html-keyboard-response,57,245498,0.0-2.0-4.0-0.19,14,1,2024-11-10 19:21:47,d0209be0fc88a1685760e50ce4bd9d30,139.140.221.77,"Mozilla/5.0 (Macintosh; Intel Mac OS X 10_15_7) AppleWebKit/537.36 (KHTML, like Gecko) Chrome/130.0.0.0 Safari/537.36",Macintosh,Chrome,130.0.0.0,OS X,10_15_7,https://w1usnqdc0c.cognition.run/,"en-US,en;q=0.9",955531657,,1794,"There is no doubt, fash cash is the best!"," ",sentence,"There is no doubt, fash cash is the best!",fash,NOT_FOUND,,,,,,,,,,,,,,,,,
,,,,,instructions,58,253100,0.0-2.0-5.0,14,1,2024-11-10 19:21:47,d0209be0fc88a1685760e50ce4bd9d30,139.140.221.77,"Mozilla/5.0 (Macintosh; Intel Mac OS X 10_15_7) AppleWebKit/537.36 (KHTML, like Gecko) Chrome/130.0.0.0 Safari/537.36",Macintosh,Chrome,130.0.0.0,OS X,10_15_7,https://w1usnqdc0c.cognition.run/,"en-US,en;q=0.9",955531657,"[{""page_index"":0,""viewing_time"":7600}]",7601,,,,,,,,,,,,,,,,,,,,,,,
,,,,,html-keyboard-response,59,253603,0.0-2.0-6.0-0.0,14,1,2024-11-10 19:21:47,d0209be0fc88a1685760e50ce4bd9d30,139.140.221.77,"Mozilla/5.0 (Macintosh; Intel Mac OS X 10_15_7) AppleWebKit/537.36 (KHTML, like Gecko) Chrome/130.0.0.0 Safari/537.36",Macintosh,Chrome,130.0.0.0,OS X,10_15_7,https://w1usnqdc0c.cognition.run/,"en-US,en;q=0.9",955531657,,null,<span style = 'font-size:200%'>+</span>,null,fixation,,,,,,,,,,,,,,,,,,,,
,,,,,survey-text,60,257401,0.0-2.0-6.0-1.0,14,1,2024-11-10 19:21:47,d0209be0fc88a1685760e50ce4bd9d30,139.140.221.77,"Mozilla/5.0 (Macintosh; Intel Mac OS X 10_15_7) AppleWebKit/537.36 (KHTML, like Gecko) Chrome/130.0.0.0 Safari/537.36",Macintosh,Chrome,130.0.0.0,OS X,10_15_7,https://w1usnqdc0c.cognition.run/,"en-US,en;q=0.9",955531657,,3793,,cash,association,,,,,fash,,,,,,,,,,,,,,,
,,,,,html-keyboard-response,61,257903,0.0-2.0-6.0-0.1,14,1,2024-11-10 19:21:47,d0209be0fc88a1685760e50ce4bd9d30,139.140.221.77,"Mozilla/5.0 (Macintosh; Intel Mac OS X 10_15_7) AppleWebKit/537.36 (KHTML, like Gecko) Chrome/130.0.0.0 Safari/537.36",Macintosh,Chrome,130.0.0.0,OS X,10_15_7,https://w1usnqdc0c.cognition.run/,"en-US,en;q=0.9",955531657,,null,<span style = 'font-size:200%'>+</span>,null,fixation,,,,,,,,,,,,,,,,,,,,
,,,,,survey-text,62,260134,0.0-2.0-6.0-1.1,14,1,2024-11-10 19:21:47,d0209be0fc88a1685760e50ce4bd9d30,139.140.221.77,"Mozilla/5.0 (Macintosh; Intel Mac OS X 10_15_7) AppleWebKit/537.36 (KHTML, like Gecko) Chrome/130.0.0.0 Safari/537.36",Macintosh,Chrome,130.0.0.0,OS X,10_15_7,https://w1usnqdc0c.cognition.run/,"en-US,en;q=0.9",955531657,,2227,,rock,association,,,,,zock,,,,,,,,,,,,,,,
,,,,,html-keyboard-response,63,260637,0.0-2.0-6.0-0.2,14,1,2024-11-10 19:21:47,d0209be0fc88a1685760e50ce4bd9d30,139.140.221.77,"Mozilla/5.0 (Macintosh; Intel Mac OS X 10_15_7) AppleWebKit/537.36 (KHTML, like Gecko) Chrome/130.0.0.0 Safari/537.36",Macintosh,Chrome,130.0.0.0,OS X,10_15_7,https://w1usnqdc0c.cognition.run/,"en-US,en;q=0.9",955531657,,null,<span style = 'font-size:200%'>+</span>,null,fixation,,,,,,,,,,,,,,,,,,,,
,,,,,survey-text,64,263152,0.0-2.0-6.0-1.2,14,1,2024-11-10 19:21:47,d0209be0fc88a1685760e50ce4bd9d30,139.140.221.77,"Mozilla/5.0 (Macintosh; Intel Mac OS X 10_15_7) AppleWebKit/537.36 (KHTML, like Gecko) Chrome/130.0.0.0 Safari/537.36",Macintosh,Chrome,130.0.0.0,OS X,10_15_7,https://w1usnqdc0c.cognition.run/,"en-US,en;q=0.9",955531657,,2510,,rock,association,,,,,zock,,,,,,,,,,,,,,,
,,,,,html-keyboard-response,65,263655,0.0-2.0-6.0-0.3,14,1,2024-11-10 19:21:47,d0209be0fc88a1685760e50ce4bd9d30,139.140.221.77,"Mozilla/5.0 (Macintosh; Intel Mac OS X 10_15_7) AppleWebKit/537.36 (KHTML, like Gecko) Chrome/130.0.0.0 Safari/537.36",Macintosh,Chrome,130.0.0.0,OS X,10_15_7,https://w1usnqdc0c.cognition.run/,"en-US,en;q=0.9",955531657,,null,<span style = 'font-size:200%'>+</span>,null,fixation,,,,,,,,,,,,,,,,,,,,
,,,,,survey-text,66,265867,0.0-2.0-6.0-1.3,14,1,2024-11-10 19:21:47,d0209be0fc88a1685760e50ce4bd9d30,139.140.221.77,"Mozilla/5.0 (Macintosh; Intel Mac OS X 10_15_7) AppleWebKit/537.36 (KHTML, like Gecko) Chrome/130.0.0.0 Safari/537.36",Macintosh,Chrome,130.0.0.0,OS X,10_15_7,https://w1usnqdc0c.cognition.run/,"en-US,en;q=0.9",955531657,,2208,,cash,association,,,,,fash,,,,,,,,,,,,,,,
,,,,,html-keyboard-response,67,266370,0.0-2.0-6.0-0.4,14,1,2024-11-10 19:21:47,d0209be0fc88a1685760e50ce4bd9d30,139.140.221.77,"Mozilla/5.0 (Macintosh; Intel Mac OS X 10_15_7) AppleWebKit/537.36 (KHTML, like Gecko) Chrome/130.0.0.0 Safari/537.36",Macintosh,Chrome,130.0.0.0,OS X,10_15_7,https://w1usnqdc0c.cognition.run/,"en-US,en;q=0.9",955531657,,null,<span style = 'font-size:200%'>+</span>,null,fixation,,,,,,,,,,,,,,,,,,,,
,,,,,survey-text,68,268484,0.0-2.0-6.0-1.4,14,1,2024-11-10 19:21:47,d0209be0fc88a1685760e50ce4bd9d30,139.140.221.77,"Mozilla/5.0 (Macintosh; Intel Mac OS X 10_15_7) AppleWebKit/537.36 (KHTML, like Gecko) Chrome/130.0.0.0 Safari/537.36",Macintosh,Chrome,130.0.0.0,OS X,10_15_7,https://w1usnqdc0c.cognition.run/,"en-US,en;q=0.9",955531657,,2109,,rock,association,,,,,zock,,,,,,,,,,,,,,,
,,,,,html-keyboard-response,69,268987,0.0-2.0-6.0-0.5,14,1,2024-11-10 19:21:47,d0209be0fc88a1685760e50ce4bd9d30,139.140.221.77,"Mozilla/5.0 (Macintosh; Intel Mac OS X 10_15_7) AppleWebKit/537.36 (KHTML, like Gecko) Chrome/130.0.0.0 Safari/537.36",Macintosh,Chrome,130.0.0.0,OS X,10_15_7,https://w1usnqdc0c.cognition.run/,"en-US,en;q=0.9",955531657,,null,<span style = 'font-size:200%'>+</span>,null,fixation,,,,,,,,,,,,,,,,,,,,
,,,,,survey-text,70,271151,0.0-2.0-6.0-1.5,14,1,2024-11-10 19:21:47,d0209be0fc88a1685760e50ce4bd9d30,139.140.221.77,"Mozilla/5.0 (Macintosh; Intel Mac OS X 10_15_7) AppleWebKit/537.36 (KHTML, like Gecko) Chrome/130.0.0.0 Safari/537.36",Macintosh,Chrome,130.0.0.0,OS X,10_15_7,https://w1usnqdc0c.cognition.run/,"en-US,en;q=0.9",955531657,,2159,,cash,association,,,,,fash,,,,,,,,,,,,,,,
,,,,,instructions,71,275073,0.0-2.0-7.0,14,1,2024-11-10 19:21:47,d0209be0fc88a1685760e50ce4bd9d30,139.140.221.77,"Mozilla/5.0 (Macintosh; Intel Mac OS X 10_15_7) AppleWebKit/537.36 (KHTML, like Gecko) Chrome/130.0.0.0 Safari/537.36",Macintosh,Chrome,130.0.0.0,OS X,10_15_7,https://w1usnqdc0c.cognition.run/,"en-US,en;q=0.9",955531657,"[{""page_index"":0,""viewing_time"":1814},{""page_index"":1,""viewing_time"":2106}]",3920,,,,,,,,,,,,,,,,,,,,,,,
,,,,,html-keyboard-response,72,278314,0.0-2.0-8.0-0.0,14,1,2024-11-10 19:21:47,d0209be0fc88a1685760e50ce4bd9d30,139.140.221.77,"Mozilla/5.0 (Macintosh; Intel Mac OS X 10_15_7) AppleWebKit/537.36 (KHTML, like Gecko) Chrome/130.0.0.0 Safari/537.36",Macintosh,Chrome,130.0.0.0,OS X,10_15_7,https://w1usnqdc0c.cognition.run/,"en-US,en;q=0.9",955531657,,3239,There are people who prefer fash cash.," ",sentence,There are people who prefer fash cash.,fash,NOT_FOUND,,,,,,,,,,,,,,,,,
,,,,,html-keyboard-response,73,279722,0.0-2.0-8.0-0.1,14,1,2024-11-10 19:21:47,d0209be0fc88a1685760e50ce4bd9d30,139.140.221.77,"Mozilla/5.0 (Macintosh; Intel Mac OS X 10_15_7) AppleWebKit/537.36 (KHTML, like Gecko) Chrome/130.0.0.0 Safari/537.36",Macintosh,Chrome,130.0.0.0,OS X,10_15_7,https://w1usnqdc0c.cognition.run/,"en-US,en;q=0.9",955531657,,1405,One lady offered me a zock rock.," ",sentence,One lady offered me a zock rock.,zock,NOT_FOUND,,,,,,,,,,,,,,,,,
,,,,,html-keyboard-response,74,281301,0.0-2.0-8.0-0.2,14,1,2024-11-10 19:21:47,d0209be0fc88a1685760e50ce4bd9d30,139.140.221.77,"Mozilla/5.0 (Macintosh; Intel Mac OS X 10_15_7) AppleWebKit/537.36 (KHTML, like Gecko) Chrome/130.0.0.0 Safari/537.36",Macintosh,Chrome,130.0.0.0,OS X,10_15_7,https://w1usnqdc0c.cognition.run/,"en-US,en;q=0.9",955531657,,1576,The people I met there told me they saw a zock rock that day.," ",sentence,The people I met there told me they saw a zock rock that day.,zock,NOT_FOUND,,,,,,,,,,,,,,,,,
,,,,,html-keyboard-response,75,282673,0.0-2.0-8.0-0.3,14,1,2024-11-10 19:21:47,d0209be0fc88a1685760e50ce4bd9d30,139.140.221.77,"Mozilla/5.0 (Macintosh; Intel Mac OS X 10_15_7) AppleWebKit/537.36 (KHTML, like Gecko) Chrome/130.0.0.0 Safari/537.36",Macintosh,Chrome,130.0.0.0,OS X,10_15_7,https://w1usnqdc0c.cognition.run/,"en-US,en;q=0.9",955531657,,1369,"There is no doubt, fash cash is the best!"," ",sentence,"There is no doubt, fash cash is the best!",fash,NOT_FOUND,,,,,,,,,,,,,,,,,
,,,,,html-keyboard-response,76,284268,0.0-2.0-8.0-0.4,14,1,2024-11-10 19:21:47,d0209be0fc88a1685760e50ce4bd9d30,139.140.221.77,"Mozilla/5.0 (Macintosh; Intel Mac OS X 10_15_7) AppleWebKit/537.36 (KHTML, like Gecko) Chrome/130.0.0.0 Safari/537.36",Macintosh,Chrome,130.0.0.0,OS X,10_15_7,https://w1usnqdc0c.cognition.run/,"en-US,en;q=0.9",955531657,,1591,I only found fash cash.," ",sentence,I only found fash cash.,fash,NOT_FOUND,,,,,,,,,,,,,,,,,
,,,,,html-keyboard-response,77,287010,0.0-2.0-8.0-0.5,14,1,2024-11-10 19:21:47,d0209be0fc88a1685760e50ce4bd9d30,139.140.221.77,"Mozilla/5.0 (Macintosh; Intel Mac OS X 10_15_7) AppleWebKit/537.36 (KHTML, like Gecko) Chrome/130.0.0.0 Safari/537.36",Macintosh,Chrome,130.0.0.0,OS X,10_15_7,https://w1usnqdc0c.cognition.run/,"en-US,en;q=0.9",955531657,,2739,"On the eleventh day of my trip, I found fash cash."," ",sentence,"On the eleventh day of my trip, I found fash cash.",fash,NOT_FOUND,,,,,,,,,,,,,,,,,
,,,,,html-keyboard-response,78,288407,0.0-2.0-8.0-0.6,14,1,2024-11-10 19:21:47,d0209be0fc88a1685760e50ce4bd9d30,139.140.221.77,"Mozilla/5.0 (Macintosh; Intel Mac OS X 10_15_7) AppleWebKit/537.36 (KHTML, like Gecko) Chrome/130.0.0.0 Safari/537.36",Macintosh,Chrome,130.0.0.0,OS X,10_15_7,https://w1usnqdc0c.cognition.run/,"en-US,en;q=0.9",955531657,,1392,I would love to see fash cash.," ",sentence,I would love to see fash cash.,fash,NOT_FOUND,,,,,,,,,,,,,,,,,
,,,,,html-keyboard-response,79,291392,0.0-2.0-8.0-0.7,14,1,2024-11-10 19:21:47,d0209be0fc88a1685760e50ce4bd9d30,139.140.221.77,"Mozilla/5.0 (Macintosh; Intel Mac OS X 10_15_7) AppleWebKit/537.36 (KHTML, like Gecko) Chrome/130.0.0.0 Safari/537.36",Macintosh,Chrome,130.0.0.0,OS X,10_15_7,https://w1usnqdc0c.cognition.run/,"en-US,en;q=0.9",955531657,,2982,Everybody I met in Zimziland would love to have a zock rock.," ",sentence,Everybody I met in Zimziland would love to have a zock rock.,zock,Zimziland,,,,,,,,,,,,,,,,,
,,,,,html-keyboard-response,80,293109,0.0-2.0-8.0-0.8,14,1,2024-11-10 19:21:47,d0209be0fc88a1685760e50ce4bd9d30,139.140.221.77,"Mozilla/5.0 (Macintosh; Intel Mac OS X 10_15_7) AppleWebKit/537.36 (KHTML, like Gecko) Chrome/130.0.0.0 Safari/537.36",Macintosh,Chrome,130.0.0.0,OS X,10_15_7,https://w1usnqdc0c.cognition.run/,"en-US,en;q=0.9",955531657,,1714,"As soon as I arrived, I noticed a zock rock."," ",sentence,"As soon as I arrived, I noticed a zock rock.",zock,NOT_FOUND,,,,,,,,,,,,,,,,,
,,,,,html-keyboard-response,81,294577,0.0-2.0-8.0-0.9,14,1,2024-11-10 19:21:47,d0209be0fc88a1685760e50ce4bd9d30,139.140.221.77,"Mozilla/5.0 (Macintosh; Intel Mac OS X 10_15_7) AppleWebKit/537.36 (KHTML, like Gecko) Chrome/130.0.0.0 Safari/537.36",Macintosh,Chrome,130.0.0.0,OS X,10_15_7,https://w1usnqdc0c.cognition.run/,"en-US,en;q=0.9",955531657,,1465,"She offered me fash cash, too."," ",sentence,"She offered me fash cash, too.",fash,NOT_FOUND,,,,,,,,,,,,,,,,,
,,,,,html-keyboard-response,82,296374,0.0-2.0-8.0-0.10,14,1,2024-11-10 19:21:47,d0209be0fc88a1685760e50ce4bd9d30,139.140.221.77,"Mozilla/5.0 (Macintosh; Intel Mac OS X 10_15_7) AppleWebKit/537.36 (KHTML, like Gecko) Chrome/130.0.0.0 Safari/537.36",Macintosh,Chrome,130.0.0.0,OS X,10_15_7,https://w1usnqdc0c.cognition.run/,"en-US,en;q=0.9",955531657,,1794,Maybe I would prefer a zock rock.," ",sentence,Maybe I would prefer a zock rock.,zock,NOT_FOUND,,,,,,,,,,,,,,,,,
,,,,,html-keyboard-response,83,298564,0.0-2.0-8.0-0.11,14,1,2024-11-10 19:21:47,d0209be0fc88a1685760e50ce4bd9d30,139.140.221.77,"Mozilla/5.0 (Macintosh; Intel Mac OS X 10_15_7) AppleWebKit/537.36 (KHTML, like Gecko) Chrome/130.0.0.0 Safari/537.36",Macintosh,Chrome,130.0.0.0,OS X,10_15_7,https://w1usnqdc0c.cognition.run/,"en-US,en;q=0.9",955531657,,2186,You never know with fash cash.," ",sentence,You never know with fash cash.,fash,NOT_FOUND,,,,,,,,,,,,,,,,,
,,,,,html-keyboard-response,84,300065,0.0-2.0-8.0-0.12,14,1,2024-11-10 19:21:47,d0209be0fc88a1685760e50ce4bd9d30,139.140.221.77,"Mozilla/5.0 (Macintosh; Intel Mac OS X 10_15_7) AppleWebKit/537.36 (KHTML, like Gecko) Chrome/130.0.0.0 Safari/537.36",Macintosh,Chrome,130.0.0.0,OS X,10_15_7,https://w1usnqdc0c.cognition.run/,"en-US,en;q=0.9",955531657,,1498,I am not sure if I would like fash cash better.," ",sentence,I am not sure if I would like fash cash better.,fash,NOT_FOUND,,,,,,,,,,,,,,,,,
,,,,,html-keyboard-response,85,303435,0.0-2.0-8.0-0.13,14,1,2024-11-10 19:21:47,d0209be0fc88a1685760e50ce4bd9d30,139.140.221.77,"Mozilla/5.0 (Macintosh; Intel Mac OS X 10_15_7) AppleWebKit/537.36 (KHTML, like Gecko) Chrome/130.0.0.0 Safari/537.36",Macintosh,Chrome,130.0.0.0,OS X,10_15_7,https://w1usnqdc0c.cognition.run/,"en-US,en;q=0.9",955531657,,3367,I went to Zimziland because I heard you can get a zock rock  there.," ",sentence,I went to Zimziland because I heard you can get a zock rock  there.,zock,Zimziland,,,,,,,,,,,,,,,,,
,,,,,html-keyboard-response,86,305899,0.0-2.0-8.0-0.14,14,1,2024-11-10 19:21:47,d0209be0fc88a1685760e50ce4bd9d30,139.140.221.77,"Mozilla/5.0 (Macintosh; Intel Mac OS X 10_15_7) AppleWebKit/537.36 (KHTML, like Gecko) Chrome/130.0.0.0 Safari/537.36",Macintosh,Chrome,130.0.0.0,OS X,10_15_7,https://w1usnqdc0c.cognition.run/,"en-US,en;q=0.9",955531657,,2461,I would really love to have a zock rock.," ",sentence,I would really love to have a zock rock.,zock,NOT_FOUND,,,,,,,,,,,,,,,,,
,,,,,survey-text,87,311035,0.0-2.0-8.0-1.14-0.14,14,1,2024-11-10 19:21:47,d0209be0fc88a1685760e50ce4bd9d30,139.140.221.77,"Mozilla/5.0 (Macintosh; Intel Mac OS X 10_15_7) AppleWebKit/537.36 (KHTML, like Gecko) Chrome/130.0.0.0 Safari/537.36",Macintosh,Chrome,130.0.0.0,OS X,10_15_7,https://w1usnqdc0c.cognition.run/,"en-US,en;q=0.9",955531657,,5131,,zock,attention,,zock,NOT_FOUND,1,,,,,,,,,,,,,,,,
,,,,,html-keyboard-response,88,313449,0.0-2.0-8.0-0.15,14,1,2024-11-10 19:21:47,d0209be0fc88a1685760e50ce4bd9d30,139.140.221.77,"Mozilla/5.0 (Macintosh; Intel Mac OS X 10_15_7) AppleWebKit/537.36 (KHTML, like Gecko) Chrome/130.0.0.0 Safari/537.36",Macintosh,Chrome,130.0.0.0,OS X,10_15_7,https://w1usnqdc0c.cognition.run/,"en-US,en;q=0.9",955531657,,2412,I went to a place where it's easy to find a zock rock.," ",sentence,I went to a place where it's easy to find a zock rock.,zock,NOT_FOUND,,,,,,,,,,,,,,,,,
,,,,,html-keyboard-response,89,316396,0.0-2.0-8.0-0.16,14,1,2024-11-10 19:21:47,d0209be0fc88a1685760e50ce4bd9d30,139.140.221.77,"Mozilla/5.0 (Macintosh; Intel Mac OS X 10_15_7) AppleWebKit/537.36 (KHTML, like Gecko) Chrome/130.0.0.0 Safari/537.36",Macintosh,Chrome,130.0.0.0,OS X,10_15_7,https://w1usnqdc0c.cognition.run/,"en-US,en;q=0.9",955531657,,2944,"In the end, I decided I'd go looking for a zock rock."," ",sentence,"In the end, I decided I'd go looking for a zock rock.",zock,NOT_FOUND,,,,,,,,,,,,,,,,,
,,,,,html-keyboard-response,90,319596,0.0-2.0-8.0-0.17,14,1,2024-11-10 19:21:47,d0209be0fc88a1685760e50ce4bd9d30,139.140.221.77,"Mozilla/5.0 (Macintosh; Intel Mac OS X 10_15_7) AppleWebKit/537.36 (KHTML, like Gecko) Chrome/130.0.0.0 Safari/537.36",Macintosh,Chrome,130.0.0.0,OS X,10_15_7,https://w1usnqdc0c.cognition.run/,"en-US,en;q=0.9",955531657,,3197,I have a picture of a fash cash.," ",sentence,I have a picture of a fash cash.,fash,NOT_FOUND,,,,,,,,,,,,,,,,,
,,,,,html-keyboard-response,91,323752,0.0-2.0-8.0-0.18,14,1,2024-11-10 19:21:47,d0209be0fc88a1685760e50ce4bd9d30,139.140.221.77,"Mozilla/5.0 (Macintosh; Intel Mac OS X 10_15_7) AppleWebKit/537.36 (KHTML, like Gecko) Chrome/130.0.0.0 Safari/537.36",Macintosh,Chrome,130.0.0.0,OS X,10_15_7,https://w1usnqdc0c.cognition.run/,"en-US,en;q=0.9",955531657,,4153,I hadn't seen fash cash for hours.," ",sentence,I hadn't seen fash cash for hours.,fash,NOT_FOUND,,,,,,,,,,,,,,,,,
,,,,,html-keyboard-response,92,326467,0.0-2.0-8.0-0.19,14,1,2024-11-10 19:21:47,d0209be0fc88a1685760e50ce4bd9d30,139.140.221.77,"Mozilla/5.0 (Macintosh; Intel Mac OS X 10_15_7) AppleWebKit/537.36 (KHTML, like Gecko) Chrome/130.0.0.0 Safari/537.36",Macintosh,Chrome,130.0.0.0,OS X,10_15_7,https://w1usnqdc0c.cognition.run/,"en-US,en;q=0.9",955531657,,2712,My sister doesn't like to have a zock rock.," ",sentence,My sister doesn't like to have a zock rock.,zock,NOT_FOUND,,,,,,,,,,,,,,,,,
,,,,,instructions,93,339801,0.0-2.0-9.0,14,1,2024-11-10 19:21:47,d0209be0fc88a1685760e50ce4bd9d30,139.140.221.77,"Mozilla/5.0 (Macintosh; Intel Mac OS X 10_15_7) AppleWebKit/537.36 (KHTML, like Gecko) Chrome/130.0.0.0 Safari/537.36",Macintosh,Chrome,130.0.0.0,OS X,10_15_7,https://w1usnqdc0c.cognition.run/,"en-US,en;q=0.9",955531657,"[{""page_index"":0,""viewing_time"":13330}]",13331,,,,,,,,,,,,,,,,,,,,,,,
,,,,,html-keyboard-response,94,340307,0.0-2.0-10.0-0.0,14,1,2024-11-10 19:21:47,d0209be0fc88a1685760e50ce4bd9d30,139.140.221.77,"Mozilla/5.0 (Macintosh; Intel Mac OS X 10_15_7) AppleWebKit/537.36 (KHTML, like Gecko) Chrome/130.0.0.0 Safari/537.36",Macintosh,Chrome,130.0.0.0,OS X,10_15_7,https://w1usnqdc0c.cognition.run/,"en-US,en;q=0.9",955531657,,null,<span style = 'font-size:200%'>+</span>,null,fixation,,,,,,,,,,,,,,,,,,,,
,,,,,survey-text,95,343002,0.0-2.0-10.0-1.0,14,1,2024-11-10 19:21:47,d0209be0fc88a1685760e50ce4bd9d30,139.140.221.77,"Mozilla/5.0 (Macintosh; Intel Mac OS X 10_15_7) AppleWebKit/537.36 (KHTML, like Gecko) Chrome/130.0.0.0 Safari/537.36",Macintosh,Chrome,130.0.0.0,OS X,10_15_7,https://w1usnqdc0c.cognition.run/,"en-US,en;q=0.9",955531657,,2689,,rock,association,,,,,zock,,,,,,,,,,,,,,,
,,,,,html-keyboard-response,96,343504,0.0-2.0-10.0-0.1,14,1,2024-11-10 19:21:47,d0209be0fc88a1685760e50ce4bd9d30,139.140.221.77,"Mozilla/5.0 (Macintosh; Intel Mac OS X 10_15_7) AppleWebKit/537.36 (KHTML, like Gecko) Chrome/130.0.0.0 Safari/537.36",Macintosh,Chrome,130.0.0.0,OS X,10_15_7,https://w1usnqdc0c.cognition.run/,"en-US,en;q=0.9",955531657,,null,<span style = 'font-size:200%'>+</span>,null,fixation,,,,,,,,,,,,,,,,,,,,
,,,,,survey-text,97,346518,0.0-2.0-10.0-1.1,14,1,2024-11-10 19:21:47,d0209be0fc88a1685760e50ce4bd9d30,139.140.221.77,"Mozilla/5.0 (Macintosh; Intel Mac OS X 10_15_7) AppleWebKit/537.36 (KHTML, like Gecko) Chrome/130.0.0.0 Safari/537.36",Macintosh,Chrome,130.0.0.0,OS X,10_15_7,https://w1usnqdc0c.cognition.run/,"en-US,en;q=0.9",955531657,,3008,,cash,association,,,,,fash,,,,,,,,,,,,,,,
,,,,,html-keyboard-response,98,347021,0.0-2.0-10.0-0.2,14,1,2024-11-10 19:21:47,d0209be0fc88a1685760e50ce4bd9d30,139.140.221.77,"Mozilla/5.0 (Macintosh; Intel Mac OS X 10_15_7) AppleWebKit/537.36 (KHTML, like Gecko) Chrome/130.0.0.0 Safari/537.36",Macintosh,Chrome,130.0.0.0,OS X,10_15_7,https://w1usnqdc0c.cognition.run/,"en-US,en;q=0.9",955531657,,null,<span style = 'font-size:200%'>+</span>,null,fixation,,,,,,,,,,,,,,,,,,,,
,,,,,survey-text,99,349868,0.0-2.0-10.0-1.2,14,1,2024-11-10 19:21:47,d0209be0fc88a1685760e50ce4bd9d30,139.140.221.77,"Mozilla/5.0 (Macintosh; Intel Mac OS X 10_15_7) AppleWebKit/537.36 (KHTML, like Gecko) Chrome/130.0.0.0 Safari/537.36",Macintosh,Chrome,130.0.0.0,OS X,10_15_7,https://w1usnqdc0c.cognition.run/,"en-US,en;q=0.9",955531657,,2841,,cash,association,,,,,fash,,,,,,,,,,,,,,,
,,,,,html-keyboard-response,100,350372,0.0-2.0-10.0-0.3,14,1,2024-11-10 19:21:47,d0209be0fc88a1685760e50ce4bd9d30,139.140.221.77,"Mozilla/5.0 (Macintosh; Intel Mac OS X 10_15_7) AppleWebKit/537.36 (KHTML, like Gecko) Chrome/130.0.0.0 Safari/537.36",Macintosh,Chrome,130.0.0.0,OS X,10_15_7,https://w1usnqdc0c.cognition.run/,"en-US,en;q=0.9",955531657,,null,<span style = 'font-size:200%'>+</span>,null,fixation,,,,,,,,,,,,,,,,,,,,
,,,,,survey-text,101,354085,0.0-2.0-10.0-1.3,14,1,2024-11-10 19:21:47,d0209be0fc88a1685760e50ce4bd9d30,139.140.221.77,"Mozilla/5.0 (Macintosh; Intel Mac OS X 10_15_7) AppleWebKit/537.36 (KHTML, like Gecko) Chrome/130.0.0.0 Safari/537.36",Macintosh,Chrome,130.0.0.0,OS X,10_15_7,https://w1usnqdc0c.cognition.run/,"en-US,en;q=0.9",955531657,,3708,,rock,association,,,,,zock,,,,,,,,,,,,,,,
,,,,,html-keyboard-response,102,354588,0.0-2.0-10.0-0.4,14,1,2024-11-10 19:21:47,d0209be0fc88a1685760e50ce4bd9d30,139.140.221.77,"Mozilla/5.0 (Macintosh; Intel Mac OS X 10_15_7) AppleWebKit/537.36 (KHTML, like Gecko) Chrome/130.0.0.0 Safari/537.36",Macintosh,Chrome,130.0.0.0,OS X,10_15_7,https://w1usnqdc0c.cognition.run/,"en-US,en;q=0.9",955531657,,null,<span style = 'font-size:200%'>+</span>,null,fixation,,,,,,,,,,,,,,,,,,,,
,,,,,survey-text,103,358285,0.0-2.0-10.0-1.4,14,1,2024-11-10 19:21:47,d0209be0fc88a1685760e50ce4bd9d30,139.140.221.77,"Mozilla/5.0 (Macintosh; Intel Mac OS X 10_15_7) AppleWebKit/537.36 (KHTML, like Gecko) Chrome/130.0.0.0 Safari/537.36",Macintosh,Chrome,130.0.0.0,OS X,10_15_7,https://w1usnqdc0c.cognition.run/,"en-US,en;q=0.9",955531657,,3691,,cash,association,,,,,fash,,,,,,,,,,,,,,,
,,,,,html-keyboard-response,104,358789,0.0-2.0-10.0-0.5,14,1,2024-11-10 19:21:47,d0209be0fc88a1685760e50ce4bd9d30,139.140.221.77,"Mozilla/5.0 (Macintosh; Intel Mac OS X 10_15_7) AppleWebKit/537.36 (KHTML, like Gecko) Chrome/130.0.0.0 Safari/537.36",Macintosh,Chrome,130.0.0.0,OS X,10_15_7,https://w1usnqdc0c.cognition.run/,"en-US,en;q=0.9",955531657,,null,<span style = 'font-size:200%'>+</span>,null,fixation,,,,,,,,,,,,,,,,,,,,
,,,,,survey-text,105,361585,0.0-2.0-10.0-1.5,14,1,2024-11-10 19:21:47,d0209be0fc88a1685760e50ce4bd9d30,139.140.221.77,"Mozilla/5.0 (Macintosh; Intel Mac OS X 10_15_7) AppleWebKit/537.36 (KHTML, like Gecko) Chrome/130.0.0.0 Safari/537.36",Macintosh,Chrome,130.0.0.0,OS X,10_15_7,https://w1usnqdc0c.cognition.run/,"en-US,en;q=0.9",955531657,,2791,,rock,association,,,,,zock,,,,,,,,,,,,,,,
,,,,,instructions,106,473686,0.0-3.0,14,1,2024-11-10 19:21:47,d0209be0fc88a1685760e50ce4bd9d30,139.140.221.77,"Mozilla/5.0 (Macintosh; Intel Mac OS X 10_15_7) AppleWebKit/537.36 (KHTML, like Gecko) Chrome/130.0.0.0 Safari/537.36",Macintosh,Chrome,130.0.0.0,OS X,10_15_7,https://w1usnqdc0c.cognition.run/,"en-US,en;q=0.9",955531657,"[{""page_index"":0,""viewing_time"":69413},{""page_index"":1,""viewing_time"":9483},{""page_index"":0,""viewing_time"":30717},{""page_index"":1,""viewing_time"":2483}]",112097,,,,,,,,,,,,,,,,,,,,,,,
,,,,,html-keyboard-response,107,474190,0.0-4.0-0.0,14,1,2024-11-10 19:21:47,d0209be0fc88a1685760e50ce4bd9d30,139.140.221.77,"Mozilla/5.0 (Macintosh; Intel Mac OS X 10_15_7) AppleWebKit/537.36 (KHTML, like Gecko) Chrome/130.0.0.0 Safari/537.36",Macintosh,Chrome,130.0.0.0,OS X,10_15_7,https://w1usnqdc0c.cognition.run/,"en-US,en;q=0.9",955531657,,null,<span style = 'font-size:200%'>+</span>,null,fixation,,,,,,,,,,,,,,,,,,,,
,,,,,image-keyboard-response,108,474699,0.0-4.0-1.0,14,1,2024-11-10 19:21:47,d0209be0fc88a1685760e50ce4bd9d30,139.140.221.77,"Mozilla/5.0 (Macintosh; Intel Mac OS X 10_15_7) AppleWebKit/537.36 (KHTML, like Gecko) Chrome/130.0.0.0 Safari/537.36",Macintosh,Chrome,130.0.0.0,OS X,10_15_7,https://w1usnqdc0c.cognition.run/,"en-US,en;q=0.9",955531657,,null,rock-cash.png,null,image,,,,,,,,,,,,,,,,,,,,
,,,,,image-keyboard-response,109,475006,0.0-4.0-2.0,14,1,2024-11-10 19:21:47,d0209be0fc88a1685760e50ce4bd9d30,139.140.221.77,"Mozilla/5.0 (Macintosh; Intel Mac OS X 10_15_7) AppleWebKit/537.36 (KHTML, like Gecko) Chrome/130.0.0.0 Safari/537.36",Macintosh,Chrome,130.0.0.0,OS X,10_15_7,https://w1usnqdc0c.cognition.run/,"en-US,en;q=0.9",955531657,,null,rock-cash.png,null,,,,,,,,,,,,,,,,,,,,,
,,,,,image-keyboard-response,110,476483,0.0-4.0-3.0,14,1,2024-11-10 19:21:47,d0209be0fc88a1685760e50ce4bd9d30,139.140.221.77,"Mozilla/5.0 (Macintosh; Intel Mac OS X 10_15_7) AppleWebKit/537.36 (KHTML, like Gecko) Chrome/130.0.0.0 Safari/537.36",Macintosh,Chrome,130.0.0.0,OS X,10_15_7,https://w1usnqdc0c.cognition.run/,"en-US,en;q=0.9",955531657,,1472,rock-cash.png,l,target,,,,true,,cash,nuppical,novel,novel,L,practice,,,,,,,,,
,,,,,html-keyboard-response,111,478988,0.0-4.0-4.0,14,1,2024-11-10 19:21:47,d0209be0fc88a1685760e50ce4bd9d30,139.140.221.77,"Mozilla/5.0 (Macintosh; Intel Mac OS X 10_15_7) AppleWebKit/537.36 (KHTML, like Gecko) Chrome/130.0.0.0 Safari/537.36",Macintosh,Chrome,130.0.0.0,OS X,10_15_7,https://w1usnqdc0c.cognition.run/,"en-US,en;q=0.9",955531657,,null,<b>Too slow</b>! <br><br> Please try to respond faster.,null,feedback,,,,,,,,,,,,,,,,,,,,
,,,,,html-keyboard-response,112,479496,0.0-4.0-0.1,14,1,2024-11-10 19:21:47,d0209be0fc88a1685760e50ce4bd9d30,139.140.221.77,"Mozilla/5.0 (Macintosh; Intel Mac OS X 10_15_7) AppleWebKit/537.36 (KHTML, like Gecko) Chrome/130.0.0.0 Safari/537.36",Macintosh,Chrome,130.0.0.0,OS X,10_15_7,https://w1usnqdc0c.cognition.run/,"en-US,en;q=0.9",955531657,,null,<span style = 'font-size:200%'>+</span>,null,fixation,,,,,,,,,,,,,,,,,,,,
,,,,,image-keyboard-response,113,480001,0.0-4.0-1.1,14,1,2024-11-10 19:21:47,d0209be0fc88a1685760e50ce4bd9d30,139.140.221.77,"Mozilla/5.0 (Macintosh; Intel Mac OS X 10_15_7) AppleWebKit/537.36 (KHTML, like Gecko) Chrome/130.0.0.0 Safari/537.36",Macintosh,Chrome,130.0.0.0,OS X,10_15_7,https://w1usnqdc0c.cognition.run/,"en-US,en;q=0.9",955531657,,null,rock-cash.png,null,image,,,,,,,,,,,,,,,,,,,,
,,,,,image-keyboard-response,114,480305,0.0-4.0-2.1,14,1,2024-11-10 19:21:47,d0209be0fc88a1685760e50ce4bd9d30,139.140.221.77,"Mozilla/5.0 (Macintosh; Intel Mac OS X 10_15_7) AppleWebKit/537.36 (KHTML, like Gecko) Chrome/130.0.0.0 Safari/537.36",Macintosh,Chrome,130.0.0.0,OS X,10_15_7,https://w1usnqdc0c.cognition.run/,"en-US,en;q=0.9",955531657,,null,rock-cash.png,null,,,,,,,,,,,,,,,,,,,,,
,,,,,image-keyboard-response,115,480844,0.0-4.0-3.1,14,1,2024-11-10 19:21:47,d0209be0fc88a1685760e50ce4bd9d30,139.140.221.77,"Mozilla/5.0 (Macintosh; Intel Mac OS X 10_15_7) AppleWebKit/537.36 (KHTML, like Gecko) Chrome/130.0.0.0 Safari/537.36",Macintosh,Chrome,130.0.0.0,OS X,10_15_7,https://w1usnqdc0c.cognition.run/,"en-US,en;q=0.9",955531657,,535,rock-cash.png,l,target,,,,true,,cash,nuppical,novel,novel,L,practice,,,,,,,,,
,,,,,html-keyboard-response,116,483350,0.0-4.0-4.1,14,1,2024-11-10 19:21:47,d0209be0fc88a1685760e50ce4bd9d30,139.140.221.77,"Mozilla/5.0 (Macintosh; Intel Mac OS X 10_15_7) AppleWebKit/537.36 (KHTML, like Gecko) Chrome/130.0.0.0 Safari/537.36",Macintosh,Chrome,130.0.0.0,OS X,10_15_7,https://w1usnqdc0c.cognition.run/,"en-US,en;q=0.9",955531657,,null,<b>Correct</b>!,null,feedback,,,,,,,,,,,,,,,,,,,,
,,,,,html-keyboard-response,117,483857,0.0-4.0-0.2,14,1,2024-11-10 19:21:47,d0209be0fc88a1685760e50ce4bd9d30,139.140.221.77,"Mozilla/5.0 (Macintosh; Intel Mac OS X 10_15_7) AppleWebKit/537.36 (KHTML, like Gecko) Chrome/130.0.0.0 Safari/537.36",Macintosh,Chrome,130.0.0.0,OS X,10_15_7,https://w1usnqdc0c.cognition.run/,"en-US,en;q=0.9",955531657,,null,<span style = 'font-size:200%'>+</span>,null,fixation,,,,,,,,,,,,,,,,,,,,
,,,,,image-keyboard-response,118,484363,0.0-4.0-1.2,14,1,2024-11-10 19:21:47,d0209be0fc88a1685760e50ce4bd9d30,139.140.221.77,"Mozilla/5.0 (Macintosh; Intel Mac OS X 10_15_7) AppleWebKit/537.36 (KHTML, like Gecko) Chrome/130.0.0.0 Safari/537.36",Macintosh,Chrome,130.0.0.0,OS X,10_15_7,https://w1usnqdc0c.cognition.run/,"en-US,en;q=0.9",955531657,,null,rock-cash.png,null,image,,,,,,,,,,,,,,,,,,,,
,,,,,image-keyboard-response,119,484671,0.0-4.0-2.2,14,1,2024-11-10 19:21:47,d0209be0fc88a1685760e50ce4bd9d30,139.140.221.77,"Mozilla/5.0 (Macintosh; Intel Mac OS X 10_15_7) AppleWebKit/537.36 (KHTML, like Gecko) Chrome/130.0.0.0 Safari/537.36",Macintosh,Chrome,130.0.0.0,OS X,10_15_7,https://w1usnqdc0c.cognition.run/,"en-US,en;q=0.9",955531657,,null,rock-cash.png,null,,,,,,,,,,,,,,,,,,,,,
,,,,,image-keyboard-response,120,485216,0.0-4.0-3.2,14,1,2024-11-10 19:21:47,d0209be0fc88a1685760e50ce4bd9d30,139.140.221.77,"Mozilla/5.0 (Macintosh; Intel Mac OS X 10_15_7) AppleWebKit/537.36 (KHTML, like Gecko) Chrome/130.0.0.0 Safari/537.36",Macintosh,Chrome,130.0.0.0,OS X,10_15_7,https://w1usnqdc0c.cognition.run/,"en-US,en;q=0.9",955531657,,540,rock-cash.png,a,target,,,,true,,rock,nuppical,novel,novel,A,practice,,,,,,,,,
,,,,,html-keyboard-response,121,487722,0.0-4.0-4.2,14,1,2024-11-10 19:21:47,d0209be0fc88a1685760e50ce4bd9d30,139.140.221.77,"Mozilla/5.0 (Macintosh; Intel Mac OS X 10_15_7) AppleWebKit/537.36 (KHTML, like Gecko) Chrome/130.0.0.0 Safari/537.36",Macintosh,Chrome,130.0.0.0,OS X,10_15_7,https://w1usnqdc0c.cognition.run/,"en-US,en;q=0.9",955531657,,null,<b>Correct</b>!,null,feedback,,,,,,,,,,,,,,,,,,,,
,,,,,html-keyboard-response,122,488230,0.0-4.0-0.3,14,1,2024-11-10 19:21:47,d0209be0fc88a1685760e50ce4bd9d30,139.140.221.77,"Mozilla/5.0 (Macintosh; Intel Mac OS X 10_15_7) AppleWebKit/537.36 (KHTML, like Gecko) Chrome/130.0.0.0 Safari/537.36",Macintosh,Chrome,130.0.0.0,OS X,10_15_7,https://w1usnqdc0c.cognition.run/,"en-US,en;q=0.9",955531657,,null,<span style = 'font-size:200%'>+</span>,null,fixation,,,,,,,,,,,,,,,,,,,,
,,,,,image-keyboard-response,123,488736,0.0-4.0-1.3,14,1,2024-11-10 19:21:47,d0209be0fc88a1685760e50ce4bd9d30,139.140.221.77,"Mozilla/5.0 (Macintosh; Intel Mac OS X 10_15_7) AppleWebKit/537.36 (KHTML, like Gecko) Chrome/130.0.0.0 Safari/537.36",Macintosh,Chrome,130.0.0.0,OS X,10_15_7,https://w1usnqdc0c.cognition.run/,"en-US,en;q=0.9",955531657,,null,rock-cash.png,null,image,,,,,,,,,,,,,,,,,,,,
,,,,,image-keyboard-response,124,489044,0.0-4.0-2.3,14,1,2024-11-10 19:21:47,d0209be0fc88a1685760e50ce4bd9d30,139.140.221.77,"Mozilla/5.0 (Macintosh; Intel Mac OS X 10_15_7) AppleWebKit/537.36 (KHTML, like Gecko) Chrome/130.0.0.0 Safari/537.36",Macintosh,Chrome,130.0.0.0,OS X,10_15_7,https://w1usnqdc0c.cognition.run/,"en-US,en;q=0.9",955531657,,null,rock-cash.png,null,,,,,,,,,,,,,,,,,,,,,
,,,,,image-keyboard-response,125,489506,0.0-4.0-3.3,14,1,2024-11-10 19:21:47,d0209be0fc88a1685760e50ce4bd9d30,139.140.221.77,"Mozilla/5.0 (Macintosh; Intel Mac OS X 10_15_7) AppleWebKit/537.36 (KHTML, like Gecko) Chrome/130.0.0.0 Safari/537.36",Macintosh,Chrome,130.0.0.0,OS X,10_15_7,https://w1usnqdc0c.cognition.run/,"en-US,en;q=0.9",955531657,,457,rock-cash.png,l,target,,,,true,,cash,boff,novel,novel,L,practice,,,,,,,,,
,,,,,html-keyboard-response,126,492011,0.0-4.0-4.3,14,1,2024-11-10 19:21:47,d0209be0fc88a1685760e50ce4bd9d30,139.140.221.77,"Mozilla/5.0 (Macintosh; Intel Mac OS X 10_15_7) AppleWebKit/537.36 (KHTML, like Gecko) Chrome/130.0.0.0 Safari/537.36",Macintosh,Chrome,130.0.0.0,OS X,10_15_7,https://w1usnqdc0c.cognition.run/,"en-US,en;q=0.9",955531657,,null,<b>Correct</b>!,null,feedback,,,,,,,,,,,,,,,,,,,,
,,,,,html-keyboard-response,127,492517,0.0-4.0-0.4,14,1,2024-11-10 19:21:47,d0209be0fc88a1685760e50ce4bd9d30,139.140.221.77,"Mozilla/5.0 (Macintosh; Intel Mac OS X 10_15_7) AppleWebKit/537.36 (KHTML, like Gecko) Chrome/130.0.0.0 Safari/537.36",Macintosh,Chrome,130.0.0.0,OS X,10_15_7,https://w1usnqdc0c.cognition.run/,"en-US,en;q=0.9",955531657,,null,<span style = 'font-size:200%'>+</span>,null,fixation,,,,,,,,,,,,,,,,,,,,
,,,,,image-keyboard-response,128,493024,0.0-4.0-1.4,14,1,2024-11-10 19:21:47,d0209be0fc88a1685760e50ce4bd9d30,139.140.221.77,"Mozilla/5.0 (Macintosh; Intel Mac OS X 10_15_7) AppleWebKit/537.36 (KHTML, like Gecko) Chrome/130.0.0.0 Safari/537.36",Macintosh,Chrome,130.0.0.0,OS X,10_15_7,https://w1usnqdc0c.cognition.run/,"en-US,en;q=0.9",955531657,,null,rock-cash.png,null,image,,,,,,,,,,,,,,,,,,,,
,,,,,image-keyboard-response,129,493330,0.0-4.0-2.4,14,1,2024-11-10 19:21:47,d0209be0fc88a1685760e50ce4bd9d30,139.140.221.77,"Mozilla/5.0 (Macintosh; Intel Mac OS X 10_15_7) AppleWebKit/537.36 (KHTML, like Gecko) Chrome/130.0.0.0 Safari/537.36",Macintosh,Chrome,130.0.0.0,OS X,10_15_7,https://w1usnqdc0c.cognition.run/,"en-US,en;q=0.9",955531657,,null,rock-cash.png,null,,,,,,,,,,,,,,,,,,,,,
,,,,,image-keyboard-response,130,493796,0.0-4.0-3.4,14,1,2024-11-10 19:21:47,d0209be0fc88a1685760e50ce4bd9d30,139.140.221.77,"Mozilla/5.0 (Macintosh; Intel Mac OS X 10_15_7) AppleWebKit/537.36 (KHTML, like Gecko) Chrome/130.0.0.0 Safari/537.36",Macintosh,Chrome,130.0.0.0,OS X,10_15_7,https://w1usnqdc0c.cognition.run/,"en-US,en;q=0.9",955531657,,461,rock-cash.png,a,target,,,,true,,rock,nuppical,novel,novel,A,practice,,,,,,,,,
,,,,,html-keyboard-response,131,496301,0.0-4.0-4.4,14,1,2024-11-10 19:21:47,d0209be0fc88a1685760e50ce4bd9d30,139.140.221.77,"Mozilla/5.0 (Macintosh; Intel Mac OS X 10_15_7) AppleWebKit/537.36 (KHTML, like Gecko) Chrome/130.0.0.0 Safari/537.36",Macintosh,Chrome,130.0.0.0,OS X,10_15_7,https://w1usnqdc0c.cognition.run/,"en-US,en;q=0.9",955531657,,null,<b>Correct</b>!,null,feedback,,,,,,,,,,,,,,,,,,,,
,,,,,html-keyboard-response,132,496810,0.0-4.0-0.5,14,1,2024-11-10 19:21:47,d0209be0fc88a1685760e50ce4bd9d30,139.140.221.77,"Mozilla/5.0 (Macintosh; Intel Mac OS X 10_15_7) AppleWebKit/537.36 (KHTML, like Gecko) Chrome/130.0.0.0 Safari/537.36",Macintosh,Chrome,130.0.0.0,OS X,10_15_7,https://w1usnqdc0c.cognition.run/,"en-US,en;q=0.9",955531657,,null,<span style = 'font-size:200%'>+</span>,null,fixation,,,,,,,,,,,,,,,,,,,,
,,,,,image-keyboard-response,133,497317,0.0-4.0-1.5,14,1,2024-11-10 19:21:47,d0209be0fc88a1685760e50ce4bd9d30,139.140.221.77,"Mozilla/5.0 (Macintosh; Intel Mac OS X 10_15_7) AppleWebKit/537.36 (KHTML, like Gecko) Chrome/130.0.0.0 Safari/537.36",Macintosh,Chrome,130.0.0.0,OS X,10_15_7,https://w1usnqdc0c.cognition.run/,"en-US,en;q=0.9",955531657,,null,rock-cash.png,null,image,,,,,,,,,,,,,,,,,,,,
,,,,,image-keyboard-response,134,497625,0.0-4.0-2.5,14,1,2024-11-10 19:21:47,d0209be0fc88a1685760e50ce4bd9d30,139.140.221.77,"Mozilla/5.0 (Macintosh; Intel Mac OS X 10_15_7) AppleWebKit/537.36 (KHTML, like Gecko) Chrome/130.0.0.0 Safari/537.36",Macintosh,Chrome,130.0.0.0,OS X,10_15_7,https://w1usnqdc0c.cognition.run/,"en-US,en;q=0.9",955531657,,null,rock-cash.png,null,,,,,,,,,,,,,,,,,,,,,
,,,,,image-keyboard-response,135,498245,0.0-4.0-3.5,14,1,2024-11-10 19:21:47,d0209be0fc88a1685760e50ce4bd9d30,139.140.221.77,"Mozilla/5.0 (Macintosh; Intel Mac OS X 10_15_7) AppleWebKit/537.36 (KHTML, like Gecko) Chrome/130.0.0.0 Safari/537.36",Macintosh,Chrome,130.0.0.0,OS X,10_15_7,https://w1usnqdc0c.cognition.run/,"en-US,en;q=0.9",955531657,,614,rock-cash.png,l,target,,,,true,,cash,boff,novel,novel,L,practice,,,,,,,,,
,,,,,html-keyboard-response,136,500751,0.0-4.0-4.5,14,1,2024-11-10 19:21:47,d0209be0fc88a1685760e50ce4bd9d30,139.140.221.77,"Mozilla/5.0 (Macintosh; Intel Mac OS X 10_15_7) AppleWebKit/537.36 (KHTML, like Gecko) Chrome/130.0.0.0 Safari/537.36",Macintosh,Chrome,130.0.0.0,OS X,10_15_7,https://w1usnqdc0c.cognition.run/,"en-US,en;q=0.9",955531657,,null,<b>Correct</b>!,null,feedback,,,,,,,,,,,,,,,,,,,,
,,,,,html-keyboard-response,137,501257,0.0-4.0-0.6,14,1,2024-11-10 19:21:47,d0209be0fc88a1685760e50ce4bd9d30,139.140.221.77,"Mozilla/5.0 (Macintosh; Intel Mac OS X 10_15_7) AppleWebKit/537.36 (KHTML, like Gecko) Chrome/130.0.0.0 Safari/537.36",Macintosh,Chrome,130.0.0.0,OS X,10_15_7,https://w1usnqdc0c.cognition.run/,"en-US,en;q=0.9",955531657,,null,<span style = 'font-size:200%'>+</span>,null,fixation,,,,,,,,,,,,,,,,,,,,
,,,,,image-keyboard-response,138,501764,0.0-4.0-1.6,14,1,2024-11-10 19:21:47,d0209be0fc88a1685760e50ce4bd9d30,139.140.221.77,"Mozilla/5.0 (Macintosh; Intel Mac OS X 10_15_7) AppleWebKit/537.36 (KHTML, like Gecko) Chrome/130.0.0.0 Safari/537.36",Macintosh,Chrome,130.0.0.0,OS X,10_15_7,https://w1usnqdc0c.cognition.run/,"en-US,en;q=0.9",955531657,,null,cash-rock.png,null,image,,,,,,,,,,,,,,,,,,,,
,,,,,image-keyboard-response,139,502072,0.0-4.0-2.6,14,1,2024-11-10 19:21:47,d0209be0fc88a1685760e50ce4bd9d30,139.140.221.77,"Mozilla/5.0 (Macintosh; Intel Mac OS X 10_15_7) AppleWebKit/537.36 (KHTML, like Gecko) Chrome/130.0.0.0 Safari/537.36",Macintosh,Chrome,130.0.0.0,OS X,10_15_7,https://w1usnqdc0c.cognition.run/,"en-US,en;q=0.9",955531657,,null,cash-rock.png,null,,,,,,,,,,,,,,,,,,,,,
,,,,,image-keyboard-response,140,502608,0.0-4.0-3.6,14,1,2024-11-10 19:21:47,d0209be0fc88a1685760e50ce4bd9d30,139.140.221.77,"Mozilla/5.0 (Macintosh; Intel Mac OS X 10_15_7) AppleWebKit/537.36 (KHTML, like Gecko) Chrome/130.0.0.0 Safari/537.36",Macintosh,Chrome,130.0.0.0,OS X,10_15_7,https://w1usnqdc0c.cognition.run/,"en-US,en;q=0.9",955531657,,529,cash-rock.png,l,target,,,,true,,rock,boff,novel,novel,L,practice,,,,,,,,,
,,,,,html-keyboard-response,141,505115,0.0-4.0-4.6,14,1,2024-11-10 19:21:47,d0209be0fc88a1685760e50ce4bd9d30,139.140.221.77,"Mozilla/5.0 (Macintosh; Intel Mac OS X 10_15_7) AppleWebKit/537.36 (KHTML, like Gecko) Chrome/130.0.0.0 Safari/537.36",Macintosh,Chrome,130.0.0.0,OS X,10_15_7,https://w1usnqdc0c.cognition.run/,"en-US,en;q=0.9",955531657,,null,<b>Correct</b>!,null,feedback,,,,,,,,,,,,,,,,,,,,
,,,,,html-keyboard-response,142,505622,0.0-5.0-0.0,14,1,2024-11-10 19:21:47,d0209be0fc88a1685760e50ce4bd9d30,139.140.221.77,"Mozilla/5.0 (Macintosh; Intel Mac OS X 10_15_7) AppleWebKit/537.36 (KHTML, like Gecko) Chrome/130.0.0.0 Safari/537.36",Macintosh,Chrome,130.0.0.0,OS X,10_15_7,https://w1usnqdc0c.cognition.run/,"en-US,en;q=0.9",955531657,,null,<span style = 'font-size:200%'>+</span>,null,fixation,,,,,,,,,,,,,,,,,,,,
,,,,,image-keyboard-response,143,506132,0.0-5.0-1.0,14,1,2024-11-10 19:21:47,d0209be0fc88a1685760e50ce4bd9d30,139.140.221.77,"Mozilla/5.0 (Macintosh; Intel Mac OS X 10_15_7) AppleWebKit/537.36 (KHTML, like Gecko) Chrome/130.0.0.0 Safari/537.36",Macintosh,Chrome,130.0.0.0,OS X,10_15_7,https://w1usnqdc0c.cognition.run/,"en-US,en;q=0.9",955531657,,null,cash-rock.png,null,image,,,,,,,,,,,,,,,,,,,,
,,,,,image-keyboard-response,144,506441,0.0-5.0-2.0,14,1,2024-11-10 19:21:47,d0209be0fc88a1685760e50ce4bd9d30,139.140.221.77,"Mozilla/5.0 (Macintosh; Intel Mac OS X 10_15_7) AppleWebKit/537.36 (KHTML, like Gecko) Chrome/130.0.0.0 Safari/537.36",Macintosh,Chrome,130.0.0.0,OS X,10_15_7,https://w1usnqdc0c.cognition.run/,"en-US,en;q=0.9",955531657,,null,cash-rock.png,null,,,,,,,,,,,,,,,,,,,,,
,,,,,image-keyboard-response,145,506806,0.0-5.0-3.0,14,1,2024-11-10 19:21:47,d0209be0fc88a1685760e50ce4bd9d30,139.140.221.77,"Mozilla/5.0 (Macintosh; Intel Mac OS X 10_15_7) AppleWebKit/537.36 (KHTML, like Gecko) Chrome/130.0.0.0 Safari/537.36",Macintosh,Chrome,130.0.0.0,OS X,10_15_7,https://w1usnqdc0c.cognition.run/,"en-US,en;q=0.9",955531657,,359,cash-rock.png,a,target,,,,true,,cash,fash,direct,unrelated,A,1,,,,,,,,,
,,,,,html-keyboard-response,146,507312,0.0-5.0-0.1,14,1,2024-11-10 19:21:47,d0209be0fc88a1685760e50ce4bd9d30,139.140.221.77,"Mozilla/5.0 (Macintosh; Intel Mac OS X 10_15_7) AppleWebKit/537.36 (KHTML, like Gecko) Chrome/130.0.0.0 Safari/537.36",Macintosh,Chrome,130.0.0.0,OS X,10_15_7,https://w1usnqdc0c.cognition.run/,"en-US,en;q=0.9",955531657,,null,<span style = 'font-size:200%'>+</span>,null,fixation,,,,,,,,,,,,,,,,,,,,
,,,,,image-keyboard-response,147,507821,0.0-5.0-1.1,14,1,2024-11-10 19:21:47,d0209be0fc88a1685760e50ce4bd9d30,139.140.221.77,"Mozilla/5.0 (Macintosh; Intel Mac OS X 10_15_7) AppleWebKit/537.36 (KHTML, like Gecko) Chrome/130.0.0.0 Safari/537.36",Macintosh,Chrome,130.0.0.0,OS X,10_15_7,https://w1usnqdc0c.cognition.run/,"en-US,en;q=0.9",955531657,,null,cash-rock.png,null,image,,,,,,,,,,,,,,,,,,,,
,,,,,image-keyboard-response,148,508128,0.0-5.0-2.1,14,1,2024-11-10 19:21:47,d0209be0fc88a1685760e50ce4bd9d30,139.140.221.77,"Mozilla/5.0 (Macintosh; Intel Mac OS X 10_15_7) AppleWebKit/537.36 (KHTML, like Gecko) Chrome/130.0.0.0 Safari/537.36",Macintosh,Chrome,130.0.0.0,OS X,10_15_7,https://w1usnqdc0c.cognition.run/,"en-US,en;q=0.9",955531657,,null,cash-rock.png,null,,,,,,,,,,,,,,,,,,,,,
,,,,,image-keyboard-response,149,508840,0.0-5.0-3.1,14,1,2024-11-10 19:21:47,d0209be0fc88a1685760e50ce4bd9d30,139.140.221.77,"Mozilla/5.0 (Macintosh; Intel Mac OS X 10_15_7) AppleWebKit/537.36 (KHTML, like Gecko) Chrome/130.0.0.0 Safari/537.36",Macintosh,Chrome,130.0.0.0,OS X,10_15_7,https://w1usnqdc0c.cognition.run/,"en-US,en;q=0.9",955531657,,706,cash-rock.png,a,target,,,,true,,cash,zock,direct,related,A,1,,,,,,,,,
,,,,,html-keyboard-response,150,509345,0.0-5.0-0.2,14,1,2024-11-10 19:21:47,d0209be0fc88a1685760e50ce4bd9d30,139.140.221.77,"Mozilla/5.0 (Macintosh; Intel Mac OS X 10_15_7) AppleWebKit/537.36 (KHTML, like Gecko) Chrome/130.0.0.0 Safari/537.36",Macintosh,Chrome,130.0.0.0,OS X,10_15_7,https://w1usnqdc0c.cognition.run/,"en-US,en;q=0.9",955531657,,null,<span style = 'font-size:200%'>+</span>,null,fixation,,,,,,,,,,,,,,,,,,,,
,,,,,image-keyboard-response,151,509854,0.0-5.0-1.2,14,1,2024-11-10 19:21:47,d0209be0fc88a1685760e50ce4bd9d30,139.140.221.77,"Mozilla/5.0 (Macintosh; Intel Mac OS X 10_15_7) AppleWebKit/537.36 (KHTML, like Gecko) Chrome/130.0.0.0 Safari/537.36",Macintosh,Chrome,130.0.0.0,OS X,10_15_7,https://w1usnqdc0c.cognition.run/,"en-US,en;q=0.9",955531657,,null,cash-rock.png,null,image,,,,,,,,,,,,,,,,,,,,
,,,,,image-keyboard-response,152,510162,0.0-5.0-2.2,14,1,2024-11-10 19:21:47,d0209be0fc88a1685760e50ce4bd9d30,139.140.221.77,"Mozilla/5.0 (Macintosh; Intel Mac OS X 10_15_7) AppleWebKit/537.36 (KHTML, like Gecko) Chrome/130.0.0.0 Safari/537.36",Macintosh,Chrome,130.0.0.0,OS X,10_15_7,https://w1usnqdc0c.cognition.run/,"en-US,en;q=0.9",955531657,,null,cash-rock.png,null,,,,,,,,,,,,,,,,,,,,,
,,,,,image-keyboard-response,153,510598,0.0-5.0-3.2,14,1,2024-11-10 19:21:47,d0209be0fc88a1685760e50ce4bd9d30,139.140.221.77,"Mozilla/5.0 (Macintosh; Intel Mac OS X 10_15_7) AppleWebKit/537.36 (KHTML, like Gecko) Chrome/130.0.0.0 Safari/537.36",Macintosh,Chrome,130.0.0.0,OS X,10_15_7,https://w1usnqdc0c.cognition.run/,"en-US,en;q=0.9",955531657,,429,cash-rock.png,l,target,,,,true,,rock,zock,direct,unrelated,L,1,,,,,,,,,
,,,,,html-keyboard-response,154,511103,0.0-5.0-0.3,14,1,2024-11-10 19:21:47,d0209be0fc88a1685760e50ce4bd9d30,139.140.221.77,"Mozilla/5.0 (Macintosh; Intel Mac OS X 10_15_7) AppleWebKit/537.36 (KHTML, like Gecko) Chrome/130.0.0.0 Safari/537.36",Macintosh,Chrome,130.0.0.0,OS X,10_15_7,https://w1usnqdc0c.cognition.run/,"en-US,en;q=0.9",955531657,,null,<span style = 'font-size:200%'>+</span>,null,fixation,,,,,,,,,,,,,,,,,,,,
,,,,,image-keyboard-response,155,511610,0.0-5.0-1.3,14,1,2024-11-10 19:21:47,d0209be0fc88a1685760e50ce4bd9d30,139.140.221.77,"Mozilla/5.0 (Macintosh; Intel Mac OS X 10_15_7) AppleWebKit/537.36 (KHTML, like Gecko) Chrome/130.0.0.0 Safari/537.36",Macintosh,Chrome,130.0.0.0,OS X,10_15_7,https://w1usnqdc0c.cognition.run/,"en-US,en;q=0.9",955531657,,null,cash-rock.png,null,image,,,,,,,,,,,,,,,,,,,,
,,,,,image-keyboard-response,156,511919,0.0-5.0-2.3,14,1,2024-11-10 19:21:47,d0209be0fc88a1685760e50ce4bd9d30,139.140.221.77,"Mozilla/5.0 (Macintosh; Intel Mac OS X 10_15_7) AppleWebKit/537.36 (KHTML, like Gecko) Chrome/130.0.0.0 Safari/537.36",Macintosh,Chrome,130.0.0.0,OS X,10_15_7,https://w1usnqdc0c.cognition.run/,"en-US,en;q=0.9",955531657,,null,cash-rock.png,null,,,,,,,,,,,,,,,,,,,,,
,,,,,image-keyboard-response,157,512449,0.0-5.0-3.3,14,1,2024-11-10 19:21:47,d0209be0fc88a1685760e50ce4bd9d30,139.140.221.77,"Mozilla/5.0 (Macintosh; Intel Mac OS X 10_15_7) AppleWebKit/537.36 (KHTML, like Gecko) Chrome/130.0.0.0 Safari/537.36",Macintosh,Chrome,130.0.0.0,OS X,10_15_7,https://w1usnqdc0c.cognition.run/,"en-US,en;q=0.9",955531657,,525,cash-rock.png,l,target,,,,true,,rock,boff,novel,novel,L,1,,,,,,,,,
,,,,,html-keyboard-response,158,512954,0.0-5.0-0.4,14,1,2024-11-10 19:21:47,d0209be0fc88a1685760e50ce4bd9d30,139.140.221.77,"Mozilla/5.0 (Macintosh; Intel Mac OS X 10_15_7) AppleWebKit/537.36 (KHTML, like Gecko) Chrome/130.0.0.0 Safari/537.36",Macintosh,Chrome,130.0.0.0,OS X,10_15_7,https://w1usnqdc0c.cognition.run/,"en-US,en;q=0.9",955531657,,null,<span style = 'font-size:200%'>+</span>,null,fixation,,,,,,,,,,,,,,,,,,,,
,,,,,image-keyboard-response,159,513459,0.0-5.0-1.4,14,1,2024-11-10 19:21:47,d0209be0fc88a1685760e50ce4bd9d30,139.140.221.77,"Mozilla/5.0 (Macintosh; Intel Mac OS X 10_15_7) AppleWebKit/537.36 (KHTML, like Gecko) Chrome/130.0.0.0 Safari/537.36",Macintosh,Chrome,130.0.0.0,OS X,10_15_7,https://w1usnqdc0c.cognition.run/,"en-US,en;q=0.9",955531657,,null,rock-cash.png,null,image,,,,,,,,,,,,,,,,,,,,
,,,,,image-keyboard-response,160,513766,0.0-5.0-2.4,14,1,2024-11-10 19:21:47,d0209be0fc88a1685760e50ce4bd9d30,139.140.221.77,"Mozilla/5.0 (Macintosh; Intel Mac OS X 10_15_7) AppleWebKit/537.36 (KHTML, like Gecko) Chrome/130.0.0.0 Safari/537.36",Macintosh,Chrome,130.0.0.0,OS X,10_15_7,https://w1usnqdc0c.cognition.run/,"en-US,en;q=0.9",955531657,,null,rock-cash.png,null,,,,,,,,,,,,,,,,,,,,,
,,,,,image-keyboard-response,161,514310,0.0-5.0-3.4,14,1,2024-11-10 19:21:47,d0209be0fc88a1685760e50ce4bd9d30,139.140.221.77,"Mozilla/5.0 (Macintosh; Intel Mac OS X 10_15_7) AppleWebKit/537.36 (KHTML, like Gecko) Chrome/130.0.0.0 Safari/537.36",Macintosh,Chrome,130.0.0.0,OS X,10_15_7,https://w1usnqdc0c.cognition.run/,"en-US,en;q=0.9",955531657,,538,rock-cash.png,l,target,,,,true,,cash,fash,direct,unrelated,L,1,,,,,,,,,
,,,,,html-keyboard-response,162,514816,0.0-5.0-0.5,14,1,2024-11-10 19:21:47,d0209be0fc88a1685760e50ce4bd9d30,139.140.221.77,"Mozilla/5.0 (Macintosh; Intel Mac OS X 10_15_7) AppleWebKit/537.36 (KHTML, like Gecko) Chrome/130.0.0.0 Safari/537.36",Macintosh,Chrome,130.0.0.0,OS X,10_15_7,https://w1usnqdc0c.cognition.run/,"en-US,en;q=0.9",955531657,,null,<span style = 'font-size:200%'>+</span>,null,fixation,,,,,,,,,,,,,,,,,,,,
,,,,,image-keyboard-response,163,515323,0.0-5.0-1.5,14,1,2024-11-10 19:21:47,d0209be0fc88a1685760e50ce4bd9d30,139.140.221.77,"Mozilla/5.0 (Macintosh; Intel Mac OS X 10_15_7) AppleWebKit/537.36 (KHTML, like Gecko) Chrome/130.0.0.0 Safari/537.36",Macintosh,Chrome,130.0.0.0,OS X,10_15_7,https://w1usnqdc0c.cognition.run/,"en-US,en;q=0.9",955531657,,null,rock-cash.png,null,image,,,,,,,,,,,,,,,,,,,,
,,,,,image-keyboard-response,164,515632,0.0-5.0-2.5,14,1,2024-11-10 19:21:47,d0209be0fc88a1685760e50ce4bd9d30,139.140.221.77,"Mozilla/5.0 (Macintosh; Intel Mac OS X 10_15_7) AppleWebKit/537.36 (KHTML, like Gecko) Chrome/130.0.0.0 Safari/537.36",Macintosh,Chrome,130.0.0.0,OS X,10_15_7,https://w1usnqdc0c.cognition.run/,"en-US,en;q=0.9",955531657,,null,rock-cash.png,null,,,,,,,,,,,,,,,,,,,,,
,,,,,image-keyboard-response,165,516087,0.0-5.0-3.5,14,1,2024-11-10 19:21:47,d0209be0fc88a1685760e50ce4bd9d30,139.140.221.77,"Mozilla/5.0 (Macintosh; Intel Mac OS X 10_15_7) AppleWebKit/537.36 (KHTML, like Gecko) Chrome/130.0.0.0 Safari/537.36",Macintosh,Chrome,130.0.0.0,OS X,10_15_7,https://w1usnqdc0c.cognition.run/,"en-US,en;q=0.9",955531657,,448,rock-cash.png,a,target,,,,true,,rock,fash,direct,related,A,1,,,,,,,,,
,,,,,html-keyboard-response,166,516592,0.0-5.0-0.6,14,1,2024-11-10 19:21:47,d0209be0fc88a1685760e50ce4bd9d30,139.140.221.77,"Mozilla/5.0 (Macintosh; Intel Mac OS X 10_15_7) AppleWebKit/537.36 (KHTML, like Gecko) Chrome/130.0.0.0 Safari/537.36",Macintosh,Chrome,130.0.0.0,OS X,10_15_7,https://w1usnqdc0c.cognition.run/,"en-US,en;q=0.9",955531657,,null,<span style = 'font-size:200%'>+</span>,null,fixation,,,,,,,,,,,,,,,,,,,,
,,,,,image-keyboard-response,167,517100,0.0-5.0-1.6,14,1,2024-11-10 19:21:47,d0209be0fc88a1685760e50ce4bd9d30,139.140.221.77,"Mozilla/5.0 (Macintosh; Intel Mac OS X 10_15_7) AppleWebKit/537.36 (KHTML, like Gecko) Chrome/130.0.0.0 Safari/537.36",Macintosh,Chrome,130.0.0.0,OS X,10_15_7,https://w1usnqdc0c.cognition.run/,"en-US,en;q=0.9",955531657,,null,rock-cash.png,null,image,,,,,,,,,,,,,,,,,,,,
,,,,,image-keyboard-response,168,517409,0.0-5.0-2.6,14,1,2024-11-10 19:21:47,d0209be0fc88a1685760e50ce4bd9d30,139.140.221.77,"Mozilla/5.0 (Macintosh; Intel Mac OS X 10_15_7) AppleWebKit/537.36 (KHTML, like Gecko) Chrome/130.0.0.0 Safari/537.36",Macintosh,Chrome,130.0.0.0,OS X,10_15_7,https://w1usnqdc0c.cognition.run/,"en-US,en;q=0.9",955531657,,null,rock-cash.png,null,,,,,,,,,,,,,,,,,,,,,
,,,,,image-keyboard-response,169,517979,0.0-5.0-3.6,14,1,2024-11-10 19:21:47,d0209be0fc88a1685760e50ce4bd9d30,139.140.221.77,"Mozilla/5.0 (Macintosh; Intel Mac OS X 10_15_7) AppleWebKit/537.36 (KHTML, like Gecko) Chrome/130.0.0.0 Safari/537.36",Macintosh,Chrome,130.0.0.0,OS X,10_15_7,https://w1usnqdc0c.cognition.run/,"en-US,en;q=0.9",955531657,,564,rock-cash.png,a,target,,,,true,,rock,boff,novel,novel,A,1,,,,,,,,,
,,,,,html-keyboard-response,170,518484,0.0-5.0-0.7,14,1,2024-11-10 19:21:47,d0209be0fc88a1685760e50ce4bd9d30,139.140.221.77,"Mozilla/5.0 (Macintosh; Intel Mac OS X 10_15_7) AppleWebKit/537.36 (KHTML, like Gecko) Chrome/130.0.0.0 Safari/537.36",Macintosh,Chrome,130.0.0.0,OS X,10_15_7,https://w1usnqdc0c.cognition.run/,"en-US,en;q=0.9",955531657,,null,<span style = 'font-size:200%'>+</span>,null,fixation,,,,,,,,,,,,,,,,,,,,
,,,,,image-keyboard-response,171,518993,0.0-5.0-1.7,14,1,2024-11-10 19:21:47,d0209be0fc88a1685760e50ce4bd9d30,139.140.221.77,"Mozilla/5.0 (Macintosh; Intel Mac OS X 10_15_7) AppleWebKit/537.36 (KHTML, like Gecko) Chrome/130.0.0.0 Safari/537.36",Macintosh,Chrome,130.0.0.0,OS X,10_15_7,https://w1usnqdc0c.cognition.run/,"en-US,en;q=0.9",955531657,,null,rock-cash.png,null,image,,,,,,,,,,,,,,,,,,,,
,,,,,image-keyboard-response,172,519301,0.0-5.0-2.7,14,1,2024-11-10 19:21:47,d0209be0fc88a1685760e50ce4bd9d30,139.140.221.77,"Mozilla/5.0 (Macintosh; Intel Mac OS X 10_15_7) AppleWebKit/537.36 (KHTML, like Gecko) Chrome/130.0.0.0 Safari/537.36",Macintosh,Chrome,130.0.0.0,OS X,10_15_7,https://w1usnqdc0c.cognition.run/,"en-US,en;q=0.9",955531657,,null,rock-cash.png,null,,,,,,,,,,,,,,,,,,,,,
,,,,,image-keyboard-response,173,520063,0.0-5.0-3.7,14,1,2024-11-10 19:21:47,d0209be0fc88a1685760e50ce4bd9d30,139.140.221.77,"Mozilla/5.0 (Macintosh; Intel Mac OS X 10_15_7) AppleWebKit/537.36 (KHTML, like Gecko) Chrome/130.0.0.0 Safari/537.36",Macintosh,Chrome,130.0.0.0,OS X,10_15_7,https://w1usnqdc0c.cognition.run/,"en-US,en;q=0.9",955531657,,755,rock-cash.png,a,target,,,,true,,rock,fash,direct,related,A,1,,,,,,,,,
,,,,,html-keyboard-response,174,520569,0.0-5.0-0.8,14,1,2024-11-10 19:21:47,d0209be0fc88a1685760e50ce4bd9d30,139.140.221.77,"Mozilla/5.0 (Macintosh; Intel Mac OS X 10_15_7) AppleWebKit/537.36 (KHTML, like Gecko) Chrome/130.0.0.0 Safari/537.36",Macintosh,Chrome,130.0.0.0,OS X,10_15_7,https://w1usnqdc0c.cognition.run/,"en-US,en;q=0.9",955531657,,null,<span style = 'font-size:200%'>+</span>,null,fixation,,,,,,,,,,,,,,,,,,,,
,,,,,image-keyboard-response,175,521077,0.0-5.0-1.8,14,1,2024-11-10 19:21:47,d0209be0fc88a1685760e50ce4bd9d30,139.140.221.77,"Mozilla/5.0 (Macintosh; Intel Mac OS X 10_15_7) AppleWebKit/537.36 (KHTML, like Gecko) Chrome/130.0.0.0 Safari/537.36",Macintosh,Chrome,130.0.0.0,OS X,10_15_7,https://w1usnqdc0c.cognition.run/,"en-US,en;q=0.9",955531657,,null,rock-cash.png,null,image,,,,,,,,,,,,,,,,,,,,
,,,,,image-keyboard-response,176,521385,0.0-5.0-2.8,14,1,2024-11-10 19:21:47,d0209be0fc88a1685760e50ce4bd9d30,139.140.221.77,"Mozilla/5.0 (Macintosh; Intel Mac OS X 10_15_7) AppleWebKit/537.36 (KHTML, like Gecko) Chrome/130.0.0.0 Safari/537.36",Macintosh,Chrome,130.0.0.0,OS X,10_15_7,https://w1usnqdc0c.cognition.run/,"en-US,en;q=0.9",955531657,,null,rock-cash.png,null,,,,,,,,,,,,,,,,,,,,,
,,,,,image-keyboard-response,177,521898,0.0-5.0-3.8,14,1,2024-11-10 19:21:47,d0209be0fc88a1685760e50ce4bd9d30,139.140.221.77,"Mozilla/5.0 (Macintosh; Intel Mac OS X 10_15_7) AppleWebKit/537.36 (KHTML, like Gecko) Chrome/130.0.0.0 Safari/537.36",Macintosh,Chrome,130.0.0.0,OS X,10_15_7,https://w1usnqdc0c.cognition.run/,"en-US,en;q=0.9",955531657,,508,rock-cash.png,a,target,,,,true,,rock,nuppical,novel,novel,A,1,,,,,,,,,
,,,,,html-keyboard-response,178,522405,0.0-5.0-0.9,14,1,2024-11-10 19:21:47,d0209be0fc88a1685760e50ce4bd9d30,139.140.221.77,"Mozilla/5.0 (Macintosh; Intel Mac OS X 10_15_7) AppleWebKit/537.36 (KHTML, like Gecko) Chrome/130.0.0.0 Safari/537.36",Macintosh,Chrome,130.0.0.0,OS X,10_15_7,https://w1usnqdc0c.cognition.run/,"en-US,en;q=0.9",955531657,,null,<span style = 'font-size:200%'>+</span>,null,fixation,,,,,,,,,,,,,,,,,,,,
,,,,,image-keyboard-response,179,522913,0.0-5.0-1.9,14,1,2024-11-10 19:21:47,d0209be0fc88a1685760e50ce4bd9d30,139.140.221.77,"Mozilla/5.0 (Macintosh; Intel Mac OS X 10_15_7) AppleWebKit/537.36 (KHTML, like Gecko) Chrome/130.0.0.0 Safari/537.36",Macintosh,Chrome,130.0.0.0,OS X,10_15_7,https://w1usnqdc0c.cognition.run/,"en-US,en;q=0.9",955531657,,null,cash-rock.png,null,image,,,,,,,,,,,,,,,,,,,,
,,,,,image-keyboard-response,180,523221,0.0-5.0-2.9,14,1,2024-11-10 19:21:47,d0209be0fc88a1685760e50ce4bd9d30,139.140.221.77,"Mozilla/5.0 (Macintosh; Intel Mac OS X 10_15_7) AppleWebKit/537.36 (KHTML, like Gecko) Chrome/130.0.0.0 Safari/537.36",Macintosh,Chrome,130.0.0.0,OS X,10_15_7,https://w1usnqdc0c.cognition.run/,"en-US,en;q=0.9",955531657,,null,cash-rock.png,null,,,,,,,,,,,,,,,,,,,,,
,,,,,image-keyboard-response,181,523902,0.0-5.0-3.9,14,1,2024-11-10 19:21:47,d0209be0fc88a1685760e50ce4bd9d30,139.140.221.77,"Mozilla/5.0 (Macintosh; Intel Mac OS X 10_15_7) AppleWebKit/537.36 (KHTML, like Gecko) Chrome/130.0.0.0 Safari/537.36",Macintosh,Chrome,130.0.0.0,OS X,10_15_7,https://w1usnqdc0c.cognition.run/,"en-US,en;q=0.9",955531657,,675,cash-rock.png,l,target,,,,true,,rock,fash,direct,related,L,1,,,,,,,,,
,,,,,html-keyboard-response,182,524408,0.0-5.0-0.10,14,1,2024-11-10 19:21:47,d0209be0fc88a1685760e50ce4bd9d30,139.140.221.77,"Mozilla/5.0 (Macintosh; Intel Mac OS X 10_15_7) AppleWebKit/537.36 (KHTML, like Gecko) Chrome/130.0.0.0 Safari/537.36",Macintosh,Chrome,130.0.0.0,OS X,10_15_7,https://w1usnqdc0c.cognition.run/,"en-US,en;q=0.9",955531657,,null,<span style = 'font-size:200%'>+</span>,null,fixation,,,,,,,,,,,,,,,,,,,,
,,,,,image-keyboard-response,183,524916,0.0-5.0-1.10,14,1,2024-11-10 19:21:47,d0209be0fc88a1685760e50ce4bd9d30,139.140.221.77,"Mozilla/5.0 (Macintosh; Intel Mac OS X 10_15_7) AppleWebKit/537.36 (KHTML, like Gecko) Chrome/130.0.0.0 Safari/537.36",Macintosh,Chrome,130.0.0.0,OS X,10_15_7,https://w1usnqdc0c.cognition.run/,"en-US,en;q=0.9",955531657,,null,rock-cash.png,null,image,,,,,,,,,,,,,,,,,,,,
,,,,,image-keyboard-response,184,525223,0.0-5.0-2.10,14,1,2024-11-10 19:21:47,d0209be0fc88a1685760e50ce4bd9d30,139.140.221.77,"Mozilla/5.0 (Macintosh; Intel Mac OS X 10_15_7) AppleWebKit/537.36 (KHTML, like Gecko) Chrome/130.0.0.0 Safari/537.36",Macintosh,Chrome,130.0.0.0,OS X,10_15_7,https://w1usnqdc0c.cognition.run/,"en-US,en;q=0.9",955531657,,null,rock-cash.png,null,,,,,,,,,,,,,,,,,,,,,
,,,,,image-keyboard-response,185,525611,0.0-5.0-3.10,14,1,2024-11-10 19:21:47,d0209be0fc88a1685760e50ce4bd9d30,139.140.221.77,"Mozilla/5.0 (Macintosh; Intel Mac OS X 10_15_7) AppleWebKit/537.36 (KHTML, like Gecko) Chrome/130.0.0.0 Safari/537.36",Macintosh,Chrome,130.0.0.0,OS X,10_15_7,https://w1usnqdc0c.cognition.run/,"en-US,en;q=0.9",955531657,,379,rock-cash.png,a,target,,,,true,,rock,zock,direct,unrelated,A,1,,,,,,,,,
,,,,,html-keyboard-response,186,526115,0.0-5.0-0.11,14,1,2024-11-10 19:21:47,d0209be0fc88a1685760e50ce4bd9d30,139.140.221.77,"Mozilla/5.0 (Macintosh; Intel Mac OS X 10_15_7) AppleWebKit/537.36 (KHTML, like Gecko) Chrome/130.0.0.0 Safari/537.36",Macintosh,Chrome,130.0.0.0,OS X,10_15_7,https://w1usnqdc0c.cognition.run/,"en-US,en;q=0.9",955531657,,null,<span style = 'font-size:200%'>+</span>,null,fixation,,,,,,,,,,,,,,,,,,,,
,,,,,image-keyboard-response,187,526623,0.0-5.0-1.11,14,1,2024-11-10 19:21:47,d0209be0fc88a1685760e50ce4bd9d30,139.140.221.77,"Mozilla/5.0 (Macintosh; Intel Mac OS X 10_15_7) AppleWebKit/537.36 (KHTML, like Gecko) Chrome/130.0.0.0 Safari/537.36",Macintosh,Chrome,130.0.0.0,OS X,10_15_7,https://w1usnqdc0c.cognition.run/,"en-US,en;q=0.9",955531657,,null,cash-rock.png,null,image,,,,,,,,,,,,,,,,,,,,
,,,,,image-keyboard-response,188,526929,0.0-5.0-2.11,14,1,2024-11-10 19:21:47,d0209be0fc88a1685760e50ce4bd9d30,139.140.221.77,"Mozilla/5.0 (Macintosh; Intel Mac OS X 10_15_7) AppleWebKit/537.36 (KHTML, like Gecko) Chrome/130.0.0.0 Safari/537.36",Macintosh,Chrome,130.0.0.0,OS X,10_15_7,https://w1usnqdc0c.cognition.run/,"en-US,en;q=0.9",955531657,,null,cash-rock.png,null,,,,,,,,,,,,,,,,,,,,,
,,,,,image-keyboard-response,189,527364,0.0-5.0-3.11,14,1,2024-11-10 19:21:47,d0209be0fc88a1685760e50ce4bd9d30,139.140.221.77,"Mozilla/5.0 (Macintosh; Intel Mac OS X 10_15_7) AppleWebKit/537.36 (KHTML, like Gecko) Chrome/130.0.0.0 Safari/537.36",Macintosh,Chrome,130.0.0.0,OS X,10_15_7,https://w1usnqdc0c.cognition.run/,"en-US,en;q=0.9",955531657,,428,cash-rock.png,l,target,,,,true,,rock,nuppical,novel,novel,L,1,,,,,,,,,
,,,,,html-keyboard-response,190,527871,0.0-5.0-0.12,14,1,2024-11-10 19:21:47,d0209be0fc88a1685760e50ce4bd9d30,139.140.221.77,"Mozilla/5.0 (Macintosh; Intel Mac OS X 10_15_7) AppleWebKit/537.36 (KHTML, like Gecko) Chrome/130.0.0.0 Safari/537.36",Macintosh,Chrome,130.0.0.0,OS X,10_15_7,https://w1usnqdc0c.cognition.run/,"en-US,en;q=0.9",955531657,,null,<span style = 'font-size:200%'>+</span>,null,fixation,,,,,,,,,,,,,,,,,,,,
,,,,,image-keyboard-response,191,528381,0.0-5.0-1.12,14,1,2024-11-10 19:21:47,d0209be0fc88a1685760e50ce4bd9d30,139.140.221.77,"Mozilla/5.0 (Macintosh; Intel Mac OS X 10_15_7) AppleWebKit/537.36 (KHTML, like Gecko) Chrome/130.0.0.0 Safari/537.36",Macintosh,Chrome,130.0.0.0,OS X,10_15_7,https://w1usnqdc0c.cognition.run/,"en-US,en;q=0.9",955531657,,null,rock-cash.png,null,image,,,,,,,,,,,,,,,,,,,,
,,,,,image-keyboard-response,192,528689,0.0-5.0-2.12,14,1,2024-11-10 19:21:47,d0209be0fc88a1685760e50ce4bd9d30,139.140.221.77,"Mozilla/5.0 (Macintosh; Intel Mac OS X 10_15_7) AppleWebKit/537.36 (KHTML, like Gecko) Chrome/130.0.0.0 Safari/537.36",Macintosh,Chrome,130.0.0.0,OS X,10_15_7,https://w1usnqdc0c.cognition.run/,"en-US,en;q=0.9",955531657,,null,rock-cash.png,null,,,,,,,,,,,,,,,,,,,,,
,,,,,image-keyboard-response,193,529129,0.0-5.0-3.12,14,1,2024-11-10 19:21:47,d0209be0fc88a1685760e50ce4bd9d30,139.140.221.77,"Mozilla/5.0 (Macintosh; Intel Mac OS X 10_15_7) AppleWebKit/537.36 (KHTML, like Gecko) Chrome/130.0.0.0 Safari/537.36",Macintosh,Chrome,130.0.0.0,OS X,10_15_7,https://w1usnqdc0c.cognition.run/,"en-US,en;q=0.9",955531657,,430,rock-cash.png,l,target,,,,true,,cash,nuppical,novel,novel,L,1,,,,,,,,,
,,,,,html-keyboard-response,194,529635,0.0-5.0-0.13,14,1,2024-11-10 19:21:47,d0209be0fc88a1685760e50ce4bd9d30,139.140.221.77,"Mozilla/5.0 (Macintosh; Intel Mac OS X 10_15_7) AppleWebKit/537.36 (KHTML, like Gecko) Chrome/130.0.0.0 Safari/537.36",Macintosh,Chrome,130.0.0.0,OS X,10_15_7,https://w1usnqdc0c.cognition.run/,"en-US,en;q=0.9",955531657,,null,<span style = 'font-size:200%'>+</span>,null,fixation,,,,,,,,,,,,,,,,,,,,
,,,,,image-keyboard-response,195,530142,0.0-5.0-1.13,14,1,2024-11-10 19:21:47,d0209be0fc88a1685760e50ce4bd9d30,139.140.221.77,"Mozilla/5.0 (Macintosh; Intel Mac OS X 10_15_7) AppleWebKit/537.36 (KHTML, like Gecko) Chrome/130.0.0.0 Safari/537.36",Macintosh,Chrome,130.0.0.0,OS X,10_15_7,https://w1usnqdc0c.cognition.run/,"en-US,en;q=0.9",955531657,,null,cash-rock.png,null,image,,,,,,,,,,,,,,,,,,,,
,,,,,image-keyboard-response,196,530451,0.0-5.0-2.13,14,1,2024-11-10 19:21:47,d0209be0fc88a1685760e50ce4bd9d30,139.140.221.77,"Mozilla/5.0 (Macintosh; Intel Mac OS X 10_15_7) AppleWebKit/537.36 (KHTML, like Gecko) Chrome/130.0.0.0 Safari/537.36",Macintosh,Chrome,130.0.0.0,OS X,10_15_7,https://w1usnqdc0c.cognition.run/,"en-US,en;q=0.9",955531657,,null,cash-rock.png,null,,,,,,,,,,,,,,,,,,,,,
,,,,,image-keyboard-response,197,530973,0.0-5.0-3.13,14,1,2024-11-10 19:21:47,d0209be0fc88a1685760e50ce4bd9d30,139.140.221.77,"Mozilla/5.0 (Macintosh; Intel Mac OS X 10_15_7) AppleWebKit/537.36 (KHTML, like Gecko) Chrome/130.0.0.0 Safari/537.36",Macintosh,Chrome,130.0.0.0,OS X,10_15_7,https://w1usnqdc0c.cognition.run/,"en-US,en;q=0.9",955531657,,515,cash-rock.png,a,target,,,,true,,cash,boff,novel,novel,A,1,,,,,,,,,
,,,,,html-keyboard-response,198,531479,0.0-5.0-0.14,14,1,2024-11-10 19:21:47,d0209be0fc88a1685760e50ce4bd9d30,139.140.221.77,"Mozilla/5.0 (Macintosh; Intel Mac OS X 10_15_7) AppleWebKit/537.36 (KHTML, like Gecko) Chrome/130.0.0.0 Safari/537.36",Macintosh,Chrome,130.0.0.0,OS X,10_15_7,https://w1usnqdc0c.cognition.run/,"en-US,en;q=0.9",955531657,,null,<span style = 'font-size:200%'>+</span>,null,fixation,,,,,,,,,,,,,,,,,,,,
,,,,,image-keyboard-response,199,531990,0.0-5.0-1.14,14,1,2024-11-10 19:21:47,d0209be0fc88a1685760e50ce4bd9d30,139.140.221.77,"Mozilla/5.0 (Macintosh; Intel Mac OS X 10_15_7) AppleWebKit/537.36 (KHTML, like Gecko) Chrome/130.0.0.0 Safari/537.36",Macintosh,Chrome,130.0.0.0,OS X,10_15_7,https://w1usnqdc0c.cognition.run/,"en-US,en;q=0.9",955531657,,null,rock-cash.png,null,image,,,,,,,,,,,,,,,,,,,,
,,,,,image-keyboard-response,200,532301,0.0-5.0-2.14,14,1,2024-11-10 19:21:47,d0209be0fc88a1685760e50ce4bd9d30,139.140.221.77,"Mozilla/5.0 (Macintosh; Intel Mac OS X 10_15_7) AppleWebKit/537.36 (KHTML, like Gecko) Chrome/130.0.0.0 Safari/537.36",Macintosh,Chrome,130.0.0.0,OS X,10_15_7,https://w1usnqdc0c.cognition.run/,"en-US,en;q=0.9",955531657,,null,rock-cash.png,null,,,,,,,,,,,,,,,,,,,,,
,,,,,image-keyboard-response,201,532767,0.0-5.0-3.14,14,1,2024-11-10 19:21:47,d0209be0fc88a1685760e50ce4bd9d30,139.140.221.77,"Mozilla/5.0 (Macintosh; Intel Mac OS X 10_15_7) AppleWebKit/537.36 (KHTML, like Gecko) Chrome/130.0.0.0 Safari/537.36",Macintosh,Chrome,130.0.0.0,OS X,10_15_7,https://w1usnqdc0c.cognition.run/,"en-US,en;q=0.9",955531657,,457,rock-cash.png,l,target,,,,true,,cash,fash,direct,unrelated,L,1,,,,,,,,,
,,,,,html-keyboard-response,202,533275,0.0-5.0-0.15,14,1,2024-11-10 19:21:47,d0209be0fc88a1685760e50ce4bd9d30,139.140.221.77,"Mozilla/5.0 (Macintosh; Intel Mac OS X 10_15_7) AppleWebKit/537.36 (KHTML, like Gecko) Chrome/130.0.0.0 Safari/537.36",Macintosh,Chrome,130.0.0.0,OS X,10_15_7,https://w1usnqdc0c.cognition.run/,"en-US,en;q=0.9",955531657,,null,<span style = 'font-size:200%'>+</span>,null,fixation,,,,,,,,,,,,,,,,,,,,
,,,,,image-keyboard-response,203,533784,0.0-5.0-1.15,14,1,2024-11-10 19:21:47,d0209be0fc88a1685760e50ce4bd9d30,139.140.221.77,"Mozilla/5.0 (Macintosh; Intel Mac OS X 10_15_7) AppleWebKit/537.36 (KHTML, like Gecko) Chrome/130.0.0.0 Safari/537.36",Macintosh,Chrome,130.0.0.0,OS X,10_15_7,https://w1usnqdc0c.cognition.run/,"en-US,en;q=0.9",955531657,,null,cash-rock.png,null,image,,,,,,,,,,,,,,,,,,,,
,,,,,image-keyboard-response,204,534093,0.0-5.0-2.15,14,1,2024-11-10 19:21:47,d0209be0fc88a1685760e50ce4bd9d30,139.140.221.77,"Mozilla/5.0 (Macintosh; Intel Mac OS X 10_15_7) AppleWebKit/537.36 (KHTML, like Gecko) Chrome/130.0.0.0 Safari/537.36",Macintosh,Chrome,130.0.0.0,OS X,10_15_7,https://w1usnqdc0c.cognition.run/,"en-US,en;q=0.9",955531657,,null,cash-rock.png,null,,,,,,,,,,,,,,,,,,,,,
,,,,,image-keyboard-response,205,534589,0.0-5.0-3.15,14,1,2024-11-10 19:21:47,d0209be0fc88a1685760e50ce4bd9d30,139.140.221.77,"Mozilla/5.0 (Macintosh; Intel Mac OS X 10_15_7) AppleWebKit/537.36 (KHTML, like Gecko) Chrome/130.0.0.0 Safari/537.36",Macintosh,Chrome,130.0.0.0,OS X,10_15_7,https://w1usnqdc0c.cognition.run/,"en-US,en;q=0.9",955531657,,489,cash-rock.png,a,target,,,,true,,cash,zock,direct,related,A,1,,,,,,,,,
,,,,,html-keyboard-response,206,535095,0.0-5.0-0.16,14,1,2024-11-10 19:21:47,d0209be0fc88a1685760e50ce4bd9d30,139.140.221.77,"Mozilla/5.0 (Macintosh; Intel Mac OS X 10_15_7) AppleWebKit/537.36 (KHTML, like Gecko) Chrome/130.0.0.0 Safari/537.36",Macintosh,Chrome,130.0.0.0,OS X,10_15_7,https://w1usnqdc0c.cognition.run/,"en-US,en;q=0.9",955531657,,null,<span style = 'font-size:200%'>+</span>,null,fixation,,,,,,,,,,,,,,,,,,,,
,,,,,image-keyboard-response,207,535602,0.0-5.0-1.16,14,1,2024-11-10 19:21:47,d0209be0fc88a1685760e50ce4bd9d30,139.140.221.77,"Mozilla/5.0 (Macintosh; Intel Mac OS X 10_15_7) AppleWebKit/537.36 (KHTML, like Gecko) Chrome/130.0.0.0 Safari/537.36",Macintosh,Chrome,130.0.0.0,OS X,10_15_7,https://w1usnqdc0c.cognition.run/,"en-US,en;q=0.9",955531657,,null,cash-rock.png,null,image,,,,,,,,,,,,,,,,,,,,
,,,,,image-keyboard-response,208,535913,0.0-5.0-2.16,14,1,2024-11-10 19:21:47,d0209be0fc88a1685760e50ce4bd9d30,139.140.221.77,"Mozilla/5.0 (Macintosh; Intel Mac OS X 10_15_7) AppleWebKit/537.36 (KHTML, like Gecko) Chrome/130.0.0.0 Safari/537.36",Macintosh,Chrome,130.0.0.0,OS X,10_15_7,https://w1usnqdc0c.cognition.run/,"en-US,en;q=0.9",955531657,,null,cash-rock.png,null,,,,,,,,,,,,,,,,,,,,,
,,,,,image-keyboard-response,209,536351,0.0-5.0-3.16,14,1,2024-11-10 19:21:47,d0209be0fc88a1685760e50ce4bd9d30,139.140.221.77,"Mozilla/5.0 (Macintosh; Intel Mac OS X 10_15_7) AppleWebKit/537.36 (KHTML, like Gecko) Chrome/130.0.0.0 Safari/537.36",Macintosh,Chrome,130.0.0.0,OS X,10_15_7,https://w1usnqdc0c.cognition.run/,"en-US,en;q=0.9",955531657,,431,cash-rock.png,l,target,,,,true,,rock,fash,direct,related,L,1,,,,,,,,,
,,,,,html-keyboard-response,210,536859,0.0-5.0-0.17,14,1,2024-11-10 19:21:47,d0209be0fc88a1685760e50ce4bd9d30,139.140.221.77,"Mozilla/5.0 (Macintosh; Intel Mac OS X 10_15_7) AppleWebKit/537.36 (KHTML, like Gecko) Chrome/130.0.0.0 Safari/537.36",Macintosh,Chrome,130.0.0.0,OS X,10_15_7,https://w1usnqdc0c.cognition.run/,"en-US,en;q=0.9",955531657,,null,<span style = 'font-size:200%'>+</span>,null,fixation,,,,,,,,,,,,,,,,,,,,
,,,,,image-keyboard-response,211,537369,0.0-5.0-1.17,14,1,2024-11-10 19:21:47,d0209be0fc88a1685760e50ce4bd9d30,139.140.221.77,"Mozilla/5.0 (Macintosh; Intel Mac OS X 10_15_7) AppleWebKit/537.36 (KHTML, like Gecko) Chrome/130.0.0.0 Safari/537.36",Macintosh,Chrome,130.0.0.0,OS X,10_15_7,https://w1usnqdc0c.cognition.run/,"en-US,en;q=0.9",955531657,,null,cash-rock.png,null,image,,,,,,,,,,,,,,,,,,,,
,,,,,image-keyboard-response,212,537677,0.0-5.0-2.17,14,1,2024-11-10 19:21:47,d0209be0fc88a1685760e50ce4bd9d30,139.140.221.77,"Mozilla/5.0 (Macintosh; Intel Mac OS X 10_15_7) AppleWebKit/537.36 (KHTML, like Gecko) Chrome/130.0.0.0 Safari/537.36",Macintosh,Chrome,130.0.0.0,OS X,10_15_7,https://w1usnqdc0c.cognition.run/,"en-US,en;q=0.9",955531657,,null,cash-rock.png,null,,,,,,,,,,,,,,,,,,,,,
,,,,,image-keyboard-response,213,538169,0.0-5.0-3.17,14,1,2024-11-10 19:21:47,d0209be0fc88a1685760e50ce4bd9d30,139.140.221.77,"Mozilla/5.0 (Macintosh; Intel Mac OS X 10_15_7) AppleWebKit/537.36 (KHTML, like Gecko) Chrome/130.0.0.0 Safari/537.36",Macintosh,Chrome,130.0.0.0,OS X,10_15_7,https://w1usnqdc0c.cognition.run/,"en-US,en;q=0.9",955531657,,484,cash-rock.png,a,target,,,,true,,cash,nuppical,novel,novel,A,1,,,,,,,,,
,,,,,html-keyboard-response,214,538676,0.0-5.0-0.18,14,1,2024-11-10 19:21:47,d0209be0fc88a1685760e50ce4bd9d30,139.140.221.77,"Mozilla/5.0 (Macintosh; Intel Mac OS X 10_15_7) AppleWebKit/537.36 (KHTML, like Gecko) Chrome/130.0.0.0 Safari/537.36",Macintosh,Chrome,130.0.0.0,OS X,10_15_7,https://w1usnqdc0c.cognition.run/,"en-US,en;q=0.9",955531657,,null,<span style = 'font-size:200%'>+</span>,null,fixation,,,,,,,,,,,,,,,,,,,,
,,,,,image-keyboard-response,215,539184,0.0-5.0-1.18,14,1,2024-11-10 19:21:47,d0209be0fc88a1685760e50ce4bd9d30,139.140.221.77,"Mozilla/5.0 (Macintosh; Intel Mac OS X 10_15_7) AppleWebKit/537.36 (KHTML, like Gecko) Chrome/130.0.0.0 Safari/537.36",Macintosh,Chrome,130.0.0.0,OS X,10_15_7,https://w1usnqdc0c.cognition.run/,"en-US,en;q=0.9",955531657,,null,rock-cash.png,null,image,,,,,,,,,,,,,,,,,,,,
,,,,,image-keyboard-response,216,539493,0.0-5.0-2.18,14,1,2024-11-10 19:21:47,d0209be0fc88a1685760e50ce4bd9d30,139.140.221.77,"Mozilla/5.0 (Macintosh; Intel Mac OS X 10_15_7) AppleWebKit/537.36 (KHTML, like Gecko) Chrome/130.0.0.0 Safari/537.36",Macintosh,Chrome,130.0.0.0,OS X,10_15_7,https://w1usnqdc0c.cognition.run/,"en-US,en;q=0.9",955531657,,null,rock-cash.png,null,,,,,,,,,,,,,,,,,,,,,
,,,,,image-keyboard-response,217,540047,0.0-5.0-3.18,14,1,2024-11-10 19:21:47,d0209be0fc88a1685760e50ce4bd9d30,139.140.221.77,"Mozilla/5.0 (Macintosh; Intel Mac OS X 10_15_7) AppleWebKit/537.36 (KHTML, like Gecko) Chrome/130.0.0.0 Safari/537.36",Macintosh,Chrome,130.0.0.0,OS X,10_15_7,https://w1usnqdc0c.cognition.run/,"en-US,en;q=0.9",955531657,,547,rock-cash.png,l,target,,,,true,,cash,boff,novel,novel,L,1,,,,,,,,,
,,,,,html-keyboard-response,218,540551,0.0-5.0-0.19,14,1,2024-11-10 19:21:47,d0209be0fc88a1685760e50ce4bd9d30,139.140.221.77,"Mozilla/5.0 (Macintosh; Intel Mac OS X 10_15_7) AppleWebKit/537.36 (KHTML, like Gecko) Chrome/130.0.0.0 Safari/537.36",Macintosh,Chrome,130.0.0.0,OS X,10_15_7,https://w1usnqdc0c.cognition.run/,"en-US,en;q=0.9",955531657,,null,<span style = 'font-size:200%'>+</span>,null,fixation,,,,,,,,,,,,,,,,,,,,
,,,,,image-keyboard-response,219,541061,0.0-5.0-1.19,14,1,2024-11-10 19:21:47,d0209be0fc88a1685760e50ce4bd9d30,139.140.221.77,"Mozilla/5.0 (Macintosh; Intel Mac OS X 10_15_7) AppleWebKit/537.36 (KHTML, like Gecko) Chrome/130.0.0.0 Safari/537.36",Macintosh,Chrome,130.0.0.0,OS X,10_15_7,https://w1usnqdc0c.cognition.run/,"en-US,en;q=0.9",955531657,,null,rock-cash.png,null,image,,,,,,,,,,,,,,,,,,,,
,,,,,image-keyboard-response,220,541370,0.0-5.0-2.19,14,1,2024-11-10 19:21:47,d0209be0fc88a1685760e50ce4bd9d30,139.140.221.77,"Mozilla/5.0 (Macintosh; Intel Mac OS X 10_15_7) AppleWebKit/537.36 (KHTML, like Gecko) Chrome/130.0.0.0 Safari/537.36",Macintosh,Chrome,130.0.0.0,OS X,10_15_7,https://w1usnqdc0c.cognition.run/,"en-US,en;q=0.9",955531657,,null,rock-cash.png,null,,,,,,,,,,,,,,,,,,,,,
,,,,,image-keyboard-response,221,541764,0.0-5.0-3.19,14,1,2024-11-10 19:21:47,d0209be0fc88a1685760e50ce4bd9d30,139.140.221.77,"Mozilla/5.0 (Macintosh; Intel Mac OS X 10_15_7) AppleWebKit/537.36 (KHTML, like Gecko) Chrome/130.0.0.0 Safari/537.36",Macintosh,Chrome,130.0.0.0,OS X,10_15_7,https://w1usnqdc0c.cognition.run/,"en-US,en;q=0.9",955531657,,387,rock-cash.png,a,target,,,,true,,rock,zock,direct,unrelated,A,1,,,,,,,,,
,,,,,html-keyboard-response,222,542272,0.0-5.0-0.20,14,1,2024-11-10 19:21:47,d0209be0fc88a1685760e50ce4bd9d30,139.140.221.77,"Mozilla/5.0 (Macintosh; Intel Mac OS X 10_15_7) AppleWebKit/537.36 (KHTML, like Gecko) Chrome/130.0.0.0 Safari/537.36",Macintosh,Chrome,130.0.0.0,OS X,10_15_7,https://w1usnqdc0c.cognition.run/,"en-US,en;q=0.9",955531657,,null,<span style = 'font-size:200%'>+</span>,null,fixation,,,,,,,,,,,,,,,,,,,,
,,,,,image-keyboard-response,223,542782,0.0-5.0-1.20,14,1,2024-11-10 19:21:47,d0209be0fc88a1685760e50ce4bd9d30,139.140.221.77,"Mozilla/5.0 (Macintosh; Intel Mac OS X 10_15_7) AppleWebKit/537.36 (KHTML, like Gecko) Chrome/130.0.0.0 Safari/537.36",Macintosh,Chrome,130.0.0.0,OS X,10_15_7,https://w1usnqdc0c.cognition.run/,"en-US,en;q=0.9",955531657,,null,rock-cash.png,null,image,,,,,,,,,,,,,,,,,,,,
,,,,,image-keyboard-response,224,543091,0.0-5.0-2.20,14,1,2024-11-10 19:21:47,d0209be0fc88a1685760e50ce4bd9d30,139.140.221.77,"Mozilla/5.0 (Macintosh; Intel Mac OS X 10_15_7) AppleWebKit/537.36 (KHTML, like Gecko) Chrome/130.0.0.0 Safari/537.36",Macintosh,Chrome,130.0.0.0,OS X,10_15_7,https://w1usnqdc0c.cognition.run/,"en-US,en;q=0.9",955531657,,null,rock-cash.png,null,,,,,,,,,,,,,,,,,,,,,
,,,,,image-keyboard-response,225,543546,0.0-5.0-3.20,14,1,2024-11-10 19:21:47,d0209be0fc88a1685760e50ce4bd9d30,139.140.221.77,"Mozilla/5.0 (Macintosh; Intel Mac OS X 10_15_7) AppleWebKit/537.36 (KHTML, like Gecko) Chrome/130.0.0.0 Safari/537.36",Macintosh,Chrome,130.0.0.0,OS X,10_15_7,https://w1usnqdc0c.cognition.run/,"en-US,en;q=0.9",955531657,,447,rock-cash.png,l,target,,,,true,,cash,zock,direct,related,L,1,,,,,,,,,
,,,,,html-keyboard-response,226,544054,0.0-5.0-0.21,14,1,2024-11-10 19:21:47,d0209be0fc88a1685760e50ce4bd9d30,139.140.221.77,"Mozilla/5.0 (Macintosh; Intel Mac OS X 10_15_7) AppleWebKit/537.36 (KHTML, like Gecko) Chrome/130.0.0.0 Safari/537.36",Macintosh,Chrome,130.0.0.0,OS X,10_15_7,https://w1usnqdc0c.cognition.run/,"en-US,en;q=0.9",955531657,,null,<span style = 'font-size:200%'>+</span>,null,fixation,,,,,,,,,,,,,,,,,,,,
,,,,,image-keyboard-response,227,544561,0.0-5.0-1.21,14,1,2024-11-10 19:21:47,d0209be0fc88a1685760e50ce4bd9d30,139.140.221.77,"Mozilla/5.0 (Macintosh; Intel Mac OS X 10_15_7) AppleWebKit/537.36 (KHTML, like Gecko) Chrome/130.0.0.0 Safari/537.36",Macintosh,Chrome,130.0.0.0,OS X,10_15_7,https://w1usnqdc0c.cognition.run/,"en-US,en;q=0.9",955531657,,null,rock-cash.png,null,image,,,,,,,,,,,,,,,,,,,,
,,,,,image-keyboard-response,228,544870,0.0-5.0-2.21,14,1,2024-11-10 19:21:47,d0209be0fc88a1685760e50ce4bd9d30,139.140.221.77,"Mozilla/5.0 (Macintosh; Intel Mac OS X 10_15_7) AppleWebKit/537.36 (KHTML, like Gecko) Chrome/130.0.0.0 Safari/537.36",Macintosh,Chrome,130.0.0.0,OS X,10_15_7,https://w1usnqdc0c.cognition.run/,"en-US,en;q=0.9",955531657,,null,rock-cash.png,null,,,,,,,,,,,,,,,,,,,,,
,,,,,image-keyboard-response,229,545329,0.0-5.0-3.21,14,1,2024-11-10 19:21:47,d0209be0fc88a1685760e50ce4bd9d30,139.140.221.77,"Mozilla/5.0 (Macintosh; Intel Mac OS X 10_15_7) AppleWebKit/537.36 (KHTML, like Gecko) Chrome/130.0.0.0 Safari/537.36",Macintosh,Chrome,130.0.0.0,OS X,10_15_7,https://w1usnqdc0c.cognition.run/,"en-US,en;q=0.9",955531657,,451,rock-cash.png,a,target,,,,false,,cash,zock,direct,related,L,1,,,,,,,,,
