success,timeout,failed_images,failed_audio,failed_video,trial_type,trial_index,time_elapsed,internal_node_id,run_id,condition,recorded_at,source_code_version,ip,user_agent,device,browser,browser_version,platform,platform_version,referer,accept_language,sona_id,ID,view_history,rt,stimulus,response,typeoftrial,sentence,novel1,novel2,correct,cue,target,prime,type,relatedness,correct_key,block_number,age,gender,education,question_order,race,hispanic,dominant_hand,alert_time,english
true,false,[],[],[],preload,0,99,0.0-0.0,1,2,2024-11-12 16:40:00,8e66e6f87182341f29844b10d892d053,139.140.201.45,"Mozilla/5.0 (Macintosh; Intel Mac OS X 10_15_7) AppleWebKit/537.36 (KHTML, like Gecko) Chrome/131.0.0.0 Safari/537.36",Macintosh,Chrome,131.0.0.0,OS X,10_15_7,https://srgdqim9z7.cognition.run/?sona_id=13331,"en-US,en;q=0.9",13331,631033177,,,,,,,,,,,,,,,,,,,,,,,,,
,,,,,instructions,1,46996,0.0-1.0,1,2,2024-11-12 16:40:00,8e66e6f87182341f29844b10d892d053,139.140.201.45,"Mozilla/5.0 (Macintosh; Intel Mac OS X 10_15_7) AppleWebKit/537.36 (KHTML, like Gecko) Chrome/131.0.0.0 Safari/537.36",Macintosh,Chrome,131.0.0.0,OS X,10_15_7,https://srgdqim9z7.cognition.run/?sona_id=13331,"en-US,en;q=0.9",13331,631033177,"[{""page_index"":0,""viewing_time"":21475},{""page_index"":1,""viewing_time"":22133},{""page_index"":2,""viewing_time"":3287}]",46896,,,,,,,,,,,,,,,,,,,,,,,
,,,,,html-keyboard-response,2,55141,0.0-2.0-0.0-0.0,1,2,2024-11-12 16:40:00,8e66e6f87182341f29844b10d892d053,139.140.201.45,"Mozilla/5.0 (Macintosh; Intel Mac OS X 10_15_7) AppleWebKit/537.36 (KHTML, like Gecko) Chrome/131.0.0.0 Safari/537.36",Macintosh,Chrome,131.0.0.0,OS X,10_15_7,https://srgdqim9z7.cognition.run/?sona_id=13331,"en-US,en;q=0.9",13331,631033177,,8143,My sister doesn't like to have a zock rock.," ",sentence,My sister doesn't like to have a zock rock.,zock,NOT_FOUND,,,,,,,,,,,,,,,,,
,,,,,html-keyboard-response,3,62796,0.0-2.0-0.0-0.1,1,2,2024-11-12 16:40:00,8e66e6f87182341f29844b10d892d053,139.140.201.45,"Mozilla/5.0 (Macintosh; Intel Mac OS X 10_15_7) AppleWebKit/537.36 (KHTML, like Gecko) Chrome/131.0.0.0 Safari/537.36",Macintosh,Chrome,131.0.0.0,OS X,10_15_7,https://srgdqim9z7.cognition.run/?sona_id=13331,"en-US,en;q=0.9",13331,631033177,,7654,Everybody I met in Zimziland would love to have a zock rock.," ",sentence,Everybody I met in Zimziland would love to have a zock rock.,zock,Zimziland,,,,,,,,,,,,,,,,,
,,,,,html-keyboard-response,4,66417,0.0-2.0-0.0-0.2,1,2,2024-11-12 16:40:00,8e66e6f87182341f29844b10d892d053,139.140.201.45,"Mozilla/5.0 (Macintosh; Intel Mac OS X 10_15_7) AppleWebKit/537.36 (KHTML, like Gecko) Chrome/131.0.0.0 Safari/537.36",Macintosh,Chrome,131.0.0.0,OS X,10_15_7,https://srgdqim9z7.cognition.run/?sona_id=13331,"en-US,en;q=0.9",13331,631033177,,3620,"In the end, I decided I'd go looking for a zock rock."," ",sentence,"In the end, I decided I'd go looking for a zock rock.",zock,NOT_FOUND,,,,,,,,,,,,,,,,,
,,,,,html-keyboard-response,5,70450,0.0-2.0-0.0-0.3,1,2,2024-11-12 16:40:00,8e66e6f87182341f29844b10d892d053,139.140.201.45,"Mozilla/5.0 (Macintosh; Intel Mac OS X 10_15_7) AppleWebKit/537.36 (KHTML, like Gecko) Chrome/131.0.0.0 Safari/537.36",Macintosh,Chrome,131.0.0.0,OS X,10_15_7,https://srgdqim9z7.cognition.run/?sona_id=13331,"en-US,en;q=0.9",13331,631033177,,4032,I went to Zimziland because I heard you can get a zock rock  there.," ",sentence,I went to Zimziland because I heard you can get a zock rock  there.,zock,Zimziland,,,,,,,,,,,,,,,,,
,,,,,html-keyboard-response,6,76532,0.0-2.0-0.0-0.4,1,2,2024-11-12 16:40:00,8e66e6f87182341f29844b10d892d053,139.140.201.45,"Mozilla/5.0 (Macintosh; Intel Mac OS X 10_15_7) AppleWebKit/537.36 (KHTML, like Gecko) Chrome/131.0.0.0 Safari/537.36",Macintosh,Chrome,131.0.0.0,OS X,10_15_7,https://srgdqim9z7.cognition.run/?sona_id=13331,"en-US,en;q=0.9",13331,631033177,,6081,I am not sure if I would like fash cash better.," ",sentence,I am not sure if I would like fash cash better.,fash,NOT_FOUND,,,,,,,,,,,,,,,,,
,,,,,html-keyboard-response,7,83646,0.0-2.0-0.0-0.5,1,2,2024-11-12 16:40:00,8e66e6f87182341f29844b10d892d053,139.140.201.45,"Mozilla/5.0 (Macintosh; Intel Mac OS X 10_15_7) AppleWebKit/537.36 (KHTML, like Gecko) Chrome/131.0.0.0 Safari/537.36",Macintosh,Chrome,131.0.0.0,OS X,10_15_7,https://srgdqim9z7.cognition.run/?sona_id=13331,"en-US,en;q=0.9",13331,631033177,,7113,"There is no doubt, fash cash is the best!"," ",sentence,"There is no doubt, fash cash is the best!",fash,NOT_FOUND,,,,,,,,,,,,,,,,,
,,,,,html-keyboard-response,8,87142,0.0-2.0-0.0-0.6,1,2,2024-11-12 16:40:00,8e66e6f87182341f29844b10d892d053,139.140.201.45,"Mozilla/5.0 (Macintosh; Intel Mac OS X 10_15_7) AppleWebKit/537.36 (KHTML, like Gecko) Chrome/131.0.0.0 Safari/537.36",Macintosh,Chrome,131.0.0.0,OS X,10_15_7,https://srgdqim9z7.cognition.run/?sona_id=13331,"en-US,en;q=0.9",13331,631033177,,3495,There are people who prefer fash cash.," ",sentence,There are people who prefer fash cash.,fash,NOT_FOUND,,,,,,,,,,,,,,,,,
,,,,,html-keyboard-response,9,91122,0.0-2.0-0.0-0.7,1,2,2024-11-12 16:40:00,8e66e6f87182341f29844b10d892d053,139.140.201.45,"Mozilla/5.0 (Macintosh; Intel Mac OS X 10_15_7) AppleWebKit/537.36 (KHTML, like Gecko) Chrome/131.0.0.0 Safari/537.36",Macintosh,Chrome,131.0.0.0,OS X,10_15_7,https://srgdqim9z7.cognition.run/?sona_id=13331,"en-US,en;q=0.9",13331,631033177,,3979,I would really love to have a zock rock.," ",sentence,I would really love to have a zock rock.,zock,NOT_FOUND,,,,,,,,,,,,,,,,,
,,,,,html-keyboard-response,10,93635,0.0-2.0-0.0-0.8,1,2,2024-11-12 16:40:00,8e66e6f87182341f29844b10d892d053,139.140.201.45,"Mozilla/5.0 (Macintosh; Intel Mac OS X 10_15_7) AppleWebKit/537.36 (KHTML, like Gecko) Chrome/131.0.0.0 Safari/537.36",Macintosh,Chrome,131.0.0.0,OS X,10_15_7,https://srgdqim9z7.cognition.run/?sona_id=13331,"en-US,en;q=0.9",13331,631033177,,2512,"She offered me fash cash, too."," ",sentence,"She offered me fash cash, too.",fash,NOT_FOUND,,,,,,,,,,,,,,,,,
,,,,,survey-text,11,101980,0.0-2.0-0.0-1.8-0.8,1,2,2024-11-12 16:40:00,8e66e6f87182341f29844b10d892d053,139.140.201.45,"Mozilla/5.0 (Macintosh; Intel Mac OS X 10_15_7) AppleWebKit/537.36 (KHTML, like Gecko) Chrome/131.0.0.0 Safari/537.36",Macintosh,Chrome,131.0.0.0,OS X,10_15_7,https://srgdqim9z7.cognition.run/?sona_id=13331,"en-US,en;q=0.9",13331,631033177,,8340,,zock,attention,,fash,NOT_FOUND,0,,,,,,,,,,,,,,,,
,,,,,html-keyboard-response,12,105474,0.0-2.0-0.0-0.9,1,2,2024-11-12 16:40:00,8e66e6f87182341f29844b10d892d053,139.140.201.45,"Mozilla/5.0 (Macintosh; Intel Mac OS X 10_15_7) AppleWebKit/537.36 (KHTML, like Gecko) Chrome/131.0.0.0 Safari/537.36",Macintosh,Chrome,131.0.0.0,OS X,10_15_7,https://srgdqim9z7.cognition.run/?sona_id=13331,"en-US,en;q=0.9",13331,631033177,,3492,One lady offered me a zock rock.," ",sentence,One lady offered me a zock rock.,zock,NOT_FOUND,,,,,,,,,,,,,,,,,
,,,,,html-keyboard-response,13,108204,0.0-2.0-0.0-0.10,1,2,2024-11-12 16:40:00,8e66e6f87182341f29844b10d892d053,139.140.201.45,"Mozilla/5.0 (Macintosh; Intel Mac OS X 10_15_7) AppleWebKit/537.36 (KHTML, like Gecko) Chrome/131.0.0.0 Safari/537.36",Macintosh,Chrome,131.0.0.0,OS X,10_15_7,https://srgdqim9z7.cognition.run/?sona_id=13331,"en-US,en;q=0.9",13331,631033177,,2730,I hadn't seen fash cash for hours.," ",sentence,I hadn't seen fash cash for hours.,fash,NOT_FOUND,,,,,,,,,,,,,,,,,
,,,,,html-keyboard-response,14,112624,0.0-2.0-0.0-0.11,1,2,2024-11-12 16:40:00,8e66e6f87182341f29844b10d892d053,139.140.201.45,"Mozilla/5.0 (Macintosh; Intel Mac OS X 10_15_7) AppleWebKit/537.36 (KHTML, like Gecko) Chrome/131.0.0.0 Safari/537.36",Macintosh,Chrome,131.0.0.0,OS X,10_15_7,https://srgdqim9z7.cognition.run/?sona_id=13331,"en-US,en;q=0.9",13331,631033177,,4419,"On the eleventh day of my trip, I found fash cash."," ",sentence,"On the eleventh day of my trip, I found fash cash.",fash,NOT_FOUND,,,,,,,,,,,,,,,,,
,,,,,html-keyboard-response,15,115194,0.0-2.0-0.0-0.12,1,2,2024-11-12 16:40:00,8e66e6f87182341f29844b10d892d053,139.140.201.45,"Mozilla/5.0 (Macintosh; Intel Mac OS X 10_15_7) AppleWebKit/537.36 (KHTML, like Gecko) Chrome/131.0.0.0 Safari/537.36",Macintosh,Chrome,131.0.0.0,OS X,10_15_7,https://srgdqim9z7.cognition.run/?sona_id=13331,"en-US,en;q=0.9",13331,631033177,,2569,The people I met there told me they saw a zock rock that day.," ",sentence,The people I met there told me they saw a zock rock that day.,zock,NOT_FOUND,,,,,,,,,,,,,,,,,
,,,,,html-keyboard-response,16,118350,0.0-2.0-0.0-0.13,1,2,2024-11-12 16:40:00,8e66e6f87182341f29844b10d892d053,139.140.201.45,"Mozilla/5.0 (Macintosh; Intel Mac OS X 10_15_7) AppleWebKit/537.36 (KHTML, like Gecko) Chrome/131.0.0.0 Safari/537.36",Macintosh,Chrome,131.0.0.0,OS X,10_15_7,https://srgdqim9z7.cognition.run/?sona_id=13331,"en-US,en;q=0.9",13331,631033177,,3154,I only found fash cash.," ",sentence,I only found fash cash.,fash,NOT_FOUND,,,,,,,,,,,,,,,,,
,,,,,survey-text,17,123855,0.0-2.0-0.0-1.13-0.13,1,2,2024-11-12 16:40:00,8e66e6f87182341f29844b10d892d053,139.140.201.45,"Mozilla/5.0 (Macintosh; Intel Mac OS X 10_15_7) AppleWebKit/537.36 (KHTML, like Gecko) Chrome/131.0.0.0 Safari/537.36",Macintosh,Chrome,131.0.0.0,OS X,10_15_7,https://srgdqim9z7.cognition.run/?sona_id=13331,"en-US,en;q=0.9",13331,631033177,,5502,,fash,attention,,fash,NOT_FOUND,1,,,,,,,,,,,,,,,,
,,,,,html-keyboard-response,18,139957,0.0-2.0-0.0-0.14,1,2,2024-11-12 16:40:00,8e66e6f87182341f29844b10d892d053,139.140.201.45,"Mozilla/5.0 (Macintosh; Intel Mac OS X 10_15_7) AppleWebKit/537.36 (KHTML, like Gecko) Chrome/131.0.0.0 Safari/537.36",Macintosh,Chrome,131.0.0.0,OS X,10_15_7,https://srgdqim9z7.cognition.run/?sona_id=13331,"en-US,en;q=0.9",13331,631033177,,16101,Maybe I would prefer a zock rock.," ",sentence,Maybe I would prefer a zock rock.,zock,NOT_FOUND,,,,,,,,,,,,,,,,,
,,,,,survey-text,19,146724,0.0-2.0-0.0-1.14-0.14,1,2,2024-11-12 16:40:00,8e66e6f87182341f29844b10d892d053,139.140.201.45,"Mozilla/5.0 (Macintosh; Intel Mac OS X 10_15_7) AppleWebKit/537.36 (KHTML, like Gecko) Chrome/131.0.0.0 Safari/537.36",Macintosh,Chrome,131.0.0.0,OS X,10_15_7,https://srgdqim9z7.cognition.run/?sona_id=13331,"en-US,en;q=0.9",13331,631033177,,6763,,zock,attention,,zock,NOT_FOUND,1,,,,,,,,,,,,,,,,
,,,,,html-keyboard-response,20,148855,0.0-2.0-0.0-0.15,1,2,2024-11-12 16:40:00,8e66e6f87182341f29844b10d892d053,139.140.201.45,"Mozilla/5.0 (Macintosh; Intel Mac OS X 10_15_7) AppleWebKit/537.36 (KHTML, like Gecko) Chrome/131.0.0.0 Safari/537.36",Macintosh,Chrome,131.0.0.0,OS X,10_15_7,https://srgdqim9z7.cognition.run/?sona_id=13331,"en-US,en;q=0.9",13331,631033177,,2131,I have a picture of a fash cash.," ",sentence,I have a picture of a fash cash.,fash,NOT_FOUND,,,,,,,,,,,,,,,,,
,,,,,html-keyboard-response,21,152191,0.0-2.0-0.0-0.16,1,2,2024-11-12 16:40:00,8e66e6f87182341f29844b10d892d053,139.140.201.45,"Mozilla/5.0 (Macintosh; Intel Mac OS X 10_15_7) AppleWebKit/537.36 (KHTML, like Gecko) Chrome/131.0.0.0 Safari/537.36",Macintosh,Chrome,131.0.0.0,OS X,10_15_7,https://srgdqim9z7.cognition.run/?sona_id=13331,"en-US,en;q=0.9",13331,631033177,,3334,You never know with fash cash.," ",sentence,You never know with fash cash.,fash,NOT_FOUND,,,,,,,,,,,,,,,,,
,,,,,html-keyboard-response,22,154318,0.0-2.0-0.0-0.17,1,2,2024-11-12 16:40:00,8e66e6f87182341f29844b10d892d053,139.140.201.45,"Mozilla/5.0 (Macintosh; Intel Mac OS X 10_15_7) AppleWebKit/537.36 (KHTML, like Gecko) Chrome/131.0.0.0 Safari/537.36",Macintosh,Chrome,131.0.0.0,OS X,10_15_7,https://srgdqim9z7.cognition.run/?sona_id=13331,"en-US,en;q=0.9",13331,631033177,,2125,I would love to see fash cash.," ",sentence,I would love to see fash cash.,fash,NOT_FOUND,,,,,,,,,,,,,,,,,
,,,,,html-keyboard-response,23,156916,0.0-2.0-0.0-0.18,1,2,2024-11-12 16:40:00,8e66e6f87182341f29844b10d892d053,139.140.201.45,"Mozilla/5.0 (Macintosh; Intel Mac OS X 10_15_7) AppleWebKit/537.36 (KHTML, like Gecko) Chrome/131.0.0.0 Safari/537.36",Macintosh,Chrome,131.0.0.0,OS X,10_15_7,https://srgdqim9z7.cognition.run/?sona_id=13331,"en-US,en;q=0.9",13331,631033177,,2596,"As soon as I arrived, I noticed a zock rock."," ",sentence,"As soon as I arrived, I noticed a zock rock.",zock,NOT_FOUND,,,,,,,,,,,,,,,,,
,,,,,html-keyboard-response,24,159513,0.0-2.0-0.0-0.19,1,2,2024-11-12 16:40:00,8e66e6f87182341f29844b10d892d053,139.140.201.45,"Mozilla/5.0 (Macintosh; Intel Mac OS X 10_15_7) AppleWebKit/537.36 (KHTML, like Gecko) Chrome/131.0.0.0 Safari/537.36",Macintosh,Chrome,131.0.0.0,OS X,10_15_7,https://srgdqim9z7.cognition.run/?sona_id=13331,"en-US,en;q=0.9",13331,631033177,,2596,I went to a place where it's easy to find a zock rock.," ",sentence,I went to a place where it's easy to find a zock rock.,zock,NOT_FOUND,,,,,,,,,,,,,,,,,
,,,,,instructions,25,188753,0.0-2.0-1.0,1,2,2024-11-12 16:40:00,8e66e6f87182341f29844b10d892d053,139.140.201.45,"Mozilla/5.0 (Macintosh; Intel Mac OS X 10_15_7) AppleWebKit/537.36 (KHTML, like Gecko) Chrome/131.0.0.0 Safari/537.36",Macintosh,Chrome,131.0.0.0,OS X,10_15_7,https://srgdqim9z7.cognition.run/?sona_id=13331,"en-US,en;q=0.9",13331,631033177,"[{""page_index"":0,""viewing_time"":29239}]",29239,,,,,,,,,,,,,,,,,,,,,,,
,,,,,html-keyboard-response,26,189256,0.0-2.0-2.0-0.0,1,2,2024-11-12 16:40:00,8e66e6f87182341f29844b10d892d053,139.140.201.45,"Mozilla/5.0 (Macintosh; Intel Mac OS X 10_15_7) AppleWebKit/537.36 (KHTML, like Gecko) Chrome/131.0.0.0 Safari/537.36",Macintosh,Chrome,131.0.0.0,OS X,10_15_7,https://srgdqim9z7.cognition.run/?sona_id=13331,"en-US,en;q=0.9",13331,631033177,,null,<span style = 'font-size:200%'>+</span>,null,fixation,,,,,,,,,,,,,,,,,,,,
,,,,,survey-text,27,196125,0.0-2.0-2.0-1.0,1,2,2024-11-12 16:40:00,8e66e6f87182341f29844b10d892d053,139.140.201.45,"Mozilla/5.0 (Macintosh; Intel Mac OS X 10_15_7) AppleWebKit/537.36 (KHTML, like Gecko) Chrome/131.0.0.0 Safari/537.36",Macintosh,Chrome,131.0.0.0,OS X,10_15_7,https://srgdqim9z7.cognition.run/?sona_id=13331,"en-US,en;q=0.9",13331,631033177,,6865,,rock,association,,,,,zock,,,,,,,,,,,,,,,
,,,,,html-keyboard-response,28,196628,0.0-2.0-2.0-0.1,1,2,2024-11-12 16:40:00,8e66e6f87182341f29844b10d892d053,139.140.201.45,"Mozilla/5.0 (Macintosh; Intel Mac OS X 10_15_7) AppleWebKit/537.36 (KHTML, like Gecko) Chrome/131.0.0.0 Safari/537.36",Macintosh,Chrome,131.0.0.0,OS X,10_15_7,https://srgdqim9z7.cognition.run/?sona_id=13331,"en-US,en;q=0.9",13331,631033177,,null,<span style = 'font-size:200%'>+</span>,null,fixation,,,,,,,,,,,,,,,,,,,,
,,,,,survey-text,29,200171,0.0-2.0-2.0-1.1,1,2,2024-11-12 16:40:00,8e66e6f87182341f29844b10d892d053,139.140.201.45,"Mozilla/5.0 (Macintosh; Intel Mac OS X 10_15_7) AppleWebKit/537.36 (KHTML, like Gecko) Chrome/131.0.0.0 Safari/537.36",Macintosh,Chrome,131.0.0.0,OS X,10_15_7,https://srgdqim9z7.cognition.run/?sona_id=13331,"en-US,en;q=0.9",13331,631033177,,3540,,cash,association,,,,,fash,,,,,,,,,,,,,,,
,,,,,html-keyboard-response,30,200674,0.0-2.0-2.0-0.2,1,2,2024-11-12 16:40:00,8e66e6f87182341f29844b10d892d053,139.140.201.45,"Mozilla/5.0 (Macintosh; Intel Mac OS X 10_15_7) AppleWebKit/537.36 (KHTML, like Gecko) Chrome/131.0.0.0 Safari/537.36",Macintosh,Chrome,131.0.0.0,OS X,10_15_7,https://srgdqim9z7.cognition.run/?sona_id=13331,"en-US,en;q=0.9",13331,631033177,,null,<span style = 'font-size:200%'>+</span>,null,fixation,,,,,,,,,,,,,,,,,,,,
,,,,,survey-text,31,204225,0.0-2.0-2.0-1.2,1,2,2024-11-12 16:40:00,8e66e6f87182341f29844b10d892d053,139.140.201.45,"Mozilla/5.0 (Macintosh; Intel Mac OS X 10_15_7) AppleWebKit/537.36 (KHTML, like Gecko) Chrome/131.0.0.0 Safari/537.36",Macintosh,Chrome,131.0.0.0,OS X,10_15_7,https://srgdqim9z7.cognition.run/?sona_id=13331,"en-US,en;q=0.9",13331,631033177,,3548,,rock,association,,,,,zock,,,,,,,,,,,,,,,
,,,,,html-keyboard-response,32,204727,0.0-2.0-2.0-0.3,1,2,2024-11-12 16:40:00,8e66e6f87182341f29844b10d892d053,139.140.201.45,"Mozilla/5.0 (Macintosh; Intel Mac OS X 10_15_7) AppleWebKit/537.36 (KHTML, like Gecko) Chrome/131.0.0.0 Safari/537.36",Macintosh,Chrome,131.0.0.0,OS X,10_15_7,https://srgdqim9z7.cognition.run/?sona_id=13331,"en-US,en;q=0.9",13331,631033177,,null,<span style = 'font-size:200%'>+</span>,null,fixation,,,,,,,,,,,,,,,,,,,,
,,,,,survey-text,33,207491,0.0-2.0-2.0-1.3,1,2,2024-11-12 16:40:00,8e66e6f87182341f29844b10d892d053,139.140.201.45,"Mozilla/5.0 (Macintosh; Intel Mac OS X 10_15_7) AppleWebKit/537.36 (KHTML, like Gecko) Chrome/131.0.0.0 Safari/537.36",Macintosh,Chrome,131.0.0.0,OS X,10_15_7,https://srgdqim9z7.cognition.run/?sona_id=13331,"en-US,en;q=0.9",13331,631033177,,2762,,cash,association,,,,,fash,,,,,,,,,,,,,,,
,,,,,html-keyboard-response,34,207994,0.0-2.0-2.0-0.4,1,2,2024-11-12 16:40:00,8e66e6f87182341f29844b10d892d053,139.140.201.45,"Mozilla/5.0 (Macintosh; Intel Mac OS X 10_15_7) AppleWebKit/537.36 (KHTML, like Gecko) Chrome/131.0.0.0 Safari/537.36",Macintosh,Chrome,131.0.0.0,OS X,10_15_7,https://srgdqim9z7.cognition.run/?sona_id=13331,"en-US,en;q=0.9",13331,631033177,,null,<span style = 'font-size:200%'>+</span>,null,fixation,,,,,,,,,,,,,,,,,,,,
,,,,,survey-text,35,210551,0.0-2.0-2.0-1.4,1,2,2024-11-12 16:40:00,8e66e6f87182341f29844b10d892d053,139.140.201.45,"Mozilla/5.0 (Macintosh; Intel Mac OS X 10_15_7) AppleWebKit/537.36 (KHTML, like Gecko) Chrome/131.0.0.0 Safari/537.36",Macintosh,Chrome,131.0.0.0,OS X,10_15_7,https://srgdqim9z7.cognition.run/?sona_id=13331,"en-US,en;q=0.9",13331,631033177,,2554,,rock,association,,,,,zock,,,,,,,,,,,,,,,
,,,,,html-keyboard-response,36,211054,0.0-2.0-2.0-0.5,1,2,2024-11-12 16:40:00,8e66e6f87182341f29844b10d892d053,139.140.201.45,"Mozilla/5.0 (Macintosh; Intel Mac OS X 10_15_7) AppleWebKit/537.36 (KHTML, like Gecko) Chrome/131.0.0.0 Safari/537.36",Macintosh,Chrome,131.0.0.0,OS X,10_15_7,https://srgdqim9z7.cognition.run/?sona_id=13331,"en-US,en;q=0.9",13331,631033177,,null,<span style = 'font-size:200%'>+</span>,null,fixation,,,,,,,,,,,,,,,,,,,,
,,,,,survey-text,37,213743,0.0-2.0-2.0-1.5,1,2,2024-11-12 16:40:00,8e66e6f87182341f29844b10d892d053,139.140.201.45,"Mozilla/5.0 (Macintosh; Intel Mac OS X 10_15_7) AppleWebKit/537.36 (KHTML, like Gecko) Chrome/131.0.0.0 Safari/537.36",Macintosh,Chrome,131.0.0.0,OS X,10_15_7,https://srgdqim9z7.cognition.run/?sona_id=13331,"en-US,en;q=0.9",13331,631033177,,2686,,cash,association,,,,,fash,,,,,,,,,,,,,,,
,,,,,instructions,38,240220,0.0-2.0-3.0,1,2,2024-11-12 16:40:00,8e66e6f87182341f29844b10d892d053,139.140.201.45,"Mozilla/5.0 (Macintosh; Intel Mac OS X 10_15_7) AppleWebKit/537.36 (KHTML, like Gecko) Chrome/131.0.0.0 Safari/537.36",Macintosh,Chrome,131.0.0.0,OS X,10_15_7,https://srgdqim9z7.cognition.run/?sona_id=13331,"en-US,en;q=0.9",13331,631033177,"[{""page_index"":0,""viewing_time"":1659},{""page_index"":1,""viewing_time"":24817}]",26476,,,,,,,,,,,,,,,,,,,,,,,
,,,,,html-keyboard-response,39,243188,0.0-2.0-4.0-0.0,1,2,2024-11-12 16:40:00,8e66e6f87182341f29844b10d892d053,139.140.201.45,"Mozilla/5.0 (Macintosh; Intel Mac OS X 10_15_7) AppleWebKit/537.36 (KHTML, like Gecko) Chrome/131.0.0.0 Safari/537.36",Macintosh,Chrome,131.0.0.0,OS X,10_15_7,https://srgdqim9z7.cognition.run/?sona_id=13331,"en-US,en;q=0.9",13331,631033177,,2966,"There is no doubt, fash cash is the best!"," ",sentence,"There is no doubt, fash cash is the best!",fash,NOT_FOUND,,,,,,,,,,,,,,,,,
,,,,,html-keyboard-response,40,245029,0.0-2.0-4.0-0.1,1,2,2024-11-12 16:40:00,8e66e6f87182341f29844b10d892d053,139.140.201.45,"Mozilla/5.0 (Macintosh; Intel Mac OS X 10_15_7) AppleWebKit/537.36 (KHTML, like Gecko) Chrome/131.0.0.0 Safari/537.36",Macintosh,Chrome,131.0.0.0,OS X,10_15_7,https://srgdqim9z7.cognition.run/?sona_id=13331,"en-US,en;q=0.9",13331,631033177,,1839,I have a picture of a fash cash.," ",sentence,I have a picture of a fash cash.,fash,NOT_FOUND,,,,,,,,,,,,,,,,,
,,,,,html-keyboard-response,41,246757,0.0-2.0-4.0-0.2,1,2,2024-11-12 16:40:00,8e66e6f87182341f29844b10d892d053,139.140.201.45,"Mozilla/5.0 (Macintosh; Intel Mac OS X 10_15_7) AppleWebKit/537.36 (KHTML, like Gecko) Chrome/131.0.0.0 Safari/537.36",Macintosh,Chrome,131.0.0.0,OS X,10_15_7,https://srgdqim9z7.cognition.run/?sona_id=13331,"en-US,en;q=0.9",13331,631033177,,1725,"As soon as I arrived, I noticed a zock rock."," ",sentence,"As soon as I arrived, I noticed a zock rock.",zock,NOT_FOUND,,,,,,,,,,,,,,,,,
,,,,,html-keyboard-response,42,248403,0.0-2.0-4.0-0.3,1,2,2024-11-12 16:40:00,8e66e6f87182341f29844b10d892d053,139.140.201.45,"Mozilla/5.0 (Macintosh; Intel Mac OS X 10_15_7) AppleWebKit/537.36 (KHTML, like Gecko) Chrome/131.0.0.0 Safari/537.36",Macintosh,Chrome,131.0.0.0,OS X,10_15_7,https://srgdqim9z7.cognition.run/?sona_id=13331,"en-US,en;q=0.9",13331,631033177,,1645,"She offered me fash cash, too."," ",sentence,"She offered me fash cash, too.",fash,NOT_FOUND,,,,,,,,,,,,,,,,,
,,,,,html-keyboard-response,43,250796,0.0-2.0-4.0-0.4,1,2,2024-11-12 16:40:00,8e66e6f87182341f29844b10d892d053,139.140.201.45,"Mozilla/5.0 (Macintosh; Intel Mac OS X 10_15_7) AppleWebKit/537.36 (KHTML, like Gecko) Chrome/131.0.0.0 Safari/537.36",Macintosh,Chrome,131.0.0.0,OS X,10_15_7,https://srgdqim9z7.cognition.run/?sona_id=13331,"en-US,en;q=0.9",13331,631033177,,2392,I went to Zimziland because I heard you can get a zock rock  there.," ",sentence,I went to Zimziland because I heard you can get a zock rock  there.,zock,Zimziland,,,,,,,,,,,,,,,,,
,,,,,html-keyboard-response,44,252927,0.0-2.0-4.0-0.5,1,2,2024-11-12 16:40:00,8e66e6f87182341f29844b10d892d053,139.140.201.45,"Mozilla/5.0 (Macintosh; Intel Mac OS X 10_15_7) AppleWebKit/537.36 (KHTML, like Gecko) Chrome/131.0.0.0 Safari/537.36",Macintosh,Chrome,131.0.0.0,OS X,10_15_7,https://srgdqim9z7.cognition.run/?sona_id=13331,"en-US,en;q=0.9",13331,631033177,,2130,Everybody I met in Zimziland would love to have a zock rock.," ",sentence,Everybody I met in Zimziland would love to have a zock rock.,zock,Zimziland,,,,,,,,,,,,,,,,,
,,,,,html-keyboard-response,45,254377,0.0-2.0-4.0-0.6,1,2,2024-11-12 16:40:00,8e66e6f87182341f29844b10d892d053,139.140.201.45,"Mozilla/5.0 (Macintosh; Intel Mac OS X 10_15_7) AppleWebKit/537.36 (KHTML, like Gecko) Chrome/131.0.0.0 Safari/537.36",Macintosh,Chrome,131.0.0.0,OS X,10_15_7,https://srgdqim9z7.cognition.run/?sona_id=13331,"en-US,en;q=0.9",13331,631033177,,1448,One lady offered me a zock rock.," ",sentence,One lady offered me a zock rock.,zock,NOT_FOUND,,,,,,,,,,,,,,,,,
,,,,,html-keyboard-response,46,255987,0.0-2.0-4.0-0.7,1,2,2024-11-12 16:40:00,8e66e6f87182341f29844b10d892d053,139.140.201.45,"Mozilla/5.0 (Macintosh; Intel Mac OS X 10_15_7) AppleWebKit/537.36 (KHTML, like Gecko) Chrome/131.0.0.0 Safari/537.36",Macintosh,Chrome,131.0.0.0,OS X,10_15_7,https://srgdqim9z7.cognition.run/?sona_id=13331,"en-US,en;q=0.9",13331,631033177,,1608,Maybe I would prefer a zock rock.," ",sentence,Maybe I would prefer a zock rock.,zock,NOT_FOUND,,,,,,,,,,,,,,,,,
,,,,,html-keyboard-response,47,257982,0.0-2.0-4.0-0.8,1,2,2024-11-12 16:40:00,8e66e6f87182341f29844b10d892d053,139.140.201.45,"Mozilla/5.0 (Macintosh; Intel Mac OS X 10_15_7) AppleWebKit/537.36 (KHTML, like Gecko) Chrome/131.0.0.0 Safari/537.36",Macintosh,Chrome,131.0.0.0,OS X,10_15_7,https://srgdqim9z7.cognition.run/?sona_id=13331,"en-US,en;q=0.9",13331,631033177,,1994,My sister doesn't like to have a zock rock.," ",sentence,My sister doesn't like to have a zock rock.,zock,NOT_FOUND,,,,,,,,,,,,,,,,,
,,,,,survey-text,48,262779,0.0-2.0-4.0-1.8-0.8,1,2,2024-11-12 16:40:00,8e66e6f87182341f29844b10d892d053,139.140.201.45,"Mozilla/5.0 (Macintosh; Intel Mac OS X 10_15_7) AppleWebKit/537.36 (KHTML, like Gecko) Chrome/131.0.0.0 Safari/537.36",Macintosh,Chrome,131.0.0.0,OS X,10_15_7,https://srgdqim9z7.cognition.run/?sona_id=13331,"en-US,en;q=0.9",13331,631033177,,4794,,zock,attention,,zock,NOT_FOUND,1,,,,,,,,,,,,,,,,
,,,,,html-keyboard-response,49,265755,0.0-2.0-4.0-0.9,1,2,2024-11-12 16:40:00,8e66e6f87182341f29844b10d892d053,139.140.201.45,"Mozilla/5.0 (Macintosh; Intel Mac OS X 10_15_7) AppleWebKit/537.36 (KHTML, like Gecko) Chrome/131.0.0.0 Safari/537.36",Macintosh,Chrome,131.0.0.0,OS X,10_15_7,https://srgdqim9z7.cognition.run/?sona_id=13331,"en-US,en;q=0.9",13331,631033177,,2974,I would really love to have a zock rock.," ",sentence,I would really love to have a zock rock.,zock,NOT_FOUND,,,,,,,,,,,,,,,,,
,,,,,html-keyboard-response,50,267148,0.0-2.0-4.0-0.10,1,2,2024-11-12 16:40:00,8e66e6f87182341f29844b10d892d053,139.140.201.45,"Mozilla/5.0 (Macintosh; Intel Mac OS X 10_15_7) AppleWebKit/537.36 (KHTML, like Gecko) Chrome/131.0.0.0 Safari/537.36",Macintosh,Chrome,131.0.0.0,OS X,10_15_7,https://srgdqim9z7.cognition.run/?sona_id=13331,"en-US,en;q=0.9",13331,631033177,,1390,"In the end, I decided I'd go looking for a zock rock."," ",sentence,"In the end, I decided I'd go looking for a zock rock.",zock,NOT_FOUND,,,,,,,,,,,,,,,,,
,,,,,html-keyboard-response,51,268346,0.0-2.0-4.0-0.11,1,2,2024-11-12 16:40:00,8e66e6f87182341f29844b10d892d053,139.140.201.45,"Mozilla/5.0 (Macintosh; Intel Mac OS X 10_15_7) AppleWebKit/537.36 (KHTML, like Gecko) Chrome/131.0.0.0 Safari/537.36",Macintosh,Chrome,131.0.0.0,OS X,10_15_7,https://srgdqim9z7.cognition.run/?sona_id=13331,"en-US,en;q=0.9",13331,631033177,,1197,I only found fash cash.," ",sentence,I only found fash cash.,fash,NOT_FOUND,,,,,,,,,,,,,,,,,
,,,,,html-keyboard-response,52,269573,0.0-2.0-4.0-0.12,1,2,2024-11-12 16:40:00,8e66e6f87182341f29844b10d892d053,139.140.201.45,"Mozilla/5.0 (Macintosh; Intel Mac OS X 10_15_7) AppleWebKit/537.36 (KHTML, like Gecko) Chrome/131.0.0.0 Safari/537.36",Macintosh,Chrome,131.0.0.0,OS X,10_15_7,https://srgdqim9z7.cognition.run/?sona_id=13331,"en-US,en;q=0.9",13331,631033177,,1224,I would love to see fash cash.," ",sentence,I would love to see fash cash.,fash,NOT_FOUND,,,,,,,,,,,,,,,,,
,,,,,html-keyboard-response,53,270874,0.0-2.0-4.0-0.13,1,2,2024-11-12 16:40:00,8e66e6f87182341f29844b10d892d053,139.140.201.45,"Mozilla/5.0 (Macintosh; Intel Mac OS X 10_15_7) AppleWebKit/537.36 (KHTML, like Gecko) Chrome/131.0.0.0 Safari/537.36",Macintosh,Chrome,131.0.0.0,OS X,10_15_7,https://srgdqim9z7.cognition.run/?sona_id=13331,"en-US,en;q=0.9",13331,631033177,,1300,I hadn't seen fash cash for hours.," ",sentence,I hadn't seen fash cash for hours.,fash,NOT_FOUND,,,,,,,,,,,,,,,,,
,,,,,survey-text,54,274555,0.0-2.0-4.0-1.13-0.13,1,2,2024-11-12 16:40:00,8e66e6f87182341f29844b10d892d053,139.140.201.45,"Mozilla/5.0 (Macintosh; Intel Mac OS X 10_15_7) AppleWebKit/537.36 (KHTML, like Gecko) Chrome/131.0.0.0 Safari/537.36",Macintosh,Chrome,131.0.0.0,OS X,10_15_7,https://srgdqim9z7.cognition.run/?sona_id=13331,"en-US,en;q=0.9",13331,631033177,,3677,,fash,attention,,fash,NOT_FOUND,1,,,,,,,,,,,,,,,,
,,,,,html-keyboard-response,55,276269,0.0-2.0-4.0-0.14,1,2,2024-11-12 16:40:00,8e66e6f87182341f29844b10d892d053,139.140.201.45,"Mozilla/5.0 (Macintosh; Intel Mac OS X 10_15_7) AppleWebKit/537.36 (KHTML, like Gecko) Chrome/131.0.0.0 Safari/537.36",Macintosh,Chrome,131.0.0.0,OS X,10_15_7,https://srgdqim9z7.cognition.run/?sona_id=13331,"en-US,en;q=0.9",13331,631033177,,1712,You never know with fash cash.," ",sentence,You never know with fash cash.,fash,NOT_FOUND,,,,,,,,,,,,,,,,,
,,,,,survey-text,56,279681,0.0-2.0-4.0-1.14-0.14,1,2,2024-11-12 16:40:00,8e66e6f87182341f29844b10d892d053,139.140.201.45,"Mozilla/5.0 (Macintosh; Intel Mac OS X 10_15_7) AppleWebKit/537.36 (KHTML, like Gecko) Chrome/131.0.0.0 Safari/537.36",Macintosh,Chrome,131.0.0.0,OS X,10_15_7,https://srgdqim9z7.cognition.run/?sona_id=13331,"en-US,en;q=0.9",13331,631033177,,3409,,fash,attention,,fash,NOT_FOUND,1,,,,,,,,,,,,,,,,
,,,,,html-keyboard-response,57,286529,0.0-2.0-4.0-0.15,1,2,2024-11-12 16:40:00,8e66e6f87182341f29844b10d892d053,139.140.201.45,"Mozilla/5.0 (Macintosh; Intel Mac OS X 10_15_7) AppleWebKit/537.36 (KHTML, like Gecko) Chrome/131.0.0.0 Safari/537.36",Macintosh,Chrome,131.0.0.0,OS X,10_15_7,https://srgdqim9z7.cognition.run/?sona_id=13331,"en-US,en;q=0.9",13331,631033177,,6845,"On the eleventh day of my trip, I found fash cash."," ",sentence,"On the eleventh day of my trip, I found fash cash.",fash,NOT_FOUND,,,,,,,,,,,,,,,,,
,,,,,html-keyboard-response,58,288629,0.0-2.0-4.0-0.16,1,2,2024-11-12 16:40:00,8e66e6f87182341f29844b10d892d053,139.140.201.45,"Mozilla/5.0 (Macintosh; Intel Mac OS X 10_15_7) AppleWebKit/537.36 (KHTML, like Gecko) Chrome/131.0.0.0 Safari/537.36",Macintosh,Chrome,131.0.0.0,OS X,10_15_7,https://srgdqim9z7.cognition.run/?sona_id=13331,"en-US,en;q=0.9",13331,631033177,,2098,The people I met there told me they saw a zock rock that day.," ",sentence,The people I met there told me they saw a zock rock that day.,zock,NOT_FOUND,,,,,,,,,,,,,,,,,
,,,,,html-keyboard-response,59,290432,0.0-2.0-4.0-0.17,1,2,2024-11-12 16:40:00,8e66e6f87182341f29844b10d892d053,139.140.201.45,"Mozilla/5.0 (Macintosh; Intel Mac OS X 10_15_7) AppleWebKit/537.36 (KHTML, like Gecko) Chrome/131.0.0.0 Safari/537.36",Macintosh,Chrome,131.0.0.0,OS X,10_15_7,https://srgdqim9z7.cognition.run/?sona_id=13331,"en-US,en;q=0.9",13331,631033177,,1802,I am not sure if I would like fash cash better.," ",sentence,I am not sure if I would like fash cash better.,fash,NOT_FOUND,,,,,,,,,,,,,,,,,
,,,,,html-keyboard-response,60,291760,0.0-2.0-4.0-0.18,1,2,2024-11-12 16:40:00,8e66e6f87182341f29844b10d892d053,139.140.201.45,"Mozilla/5.0 (Macintosh; Intel Mac OS X 10_15_7) AppleWebKit/537.36 (KHTML, like Gecko) Chrome/131.0.0.0 Safari/537.36",Macintosh,Chrome,131.0.0.0,OS X,10_15_7,https://srgdqim9z7.cognition.run/?sona_id=13331,"en-US,en;q=0.9",13331,631033177,,1326,There are people who prefer fash cash.," ",sentence,There are people who prefer fash cash.,fash,NOT_FOUND,,,,,,,,,,,,,,,,,
,,,,,html-keyboard-response,61,293631,0.0-2.0-4.0-0.19,1,2,2024-11-12 16:40:00,8e66e6f87182341f29844b10d892d053,139.140.201.45,"Mozilla/5.0 (Macintosh; Intel Mac OS X 10_15_7) AppleWebKit/537.36 (KHTML, like Gecko) Chrome/131.0.0.0 Safari/537.36",Macintosh,Chrome,131.0.0.0,OS X,10_15_7,https://srgdqim9z7.cognition.run/?sona_id=13331,"en-US,en;q=0.9",13331,631033177,,1869,I went to a place where it's easy to find a zock rock.," ",sentence,I went to a place where it's easy to find a zock rock.,zock,NOT_FOUND,,,,,,,,,,,,,,,,,
,,,,,instructions,62,313778,0.0-2.0-5.0,1,2,2024-11-12 16:40:00,8e66e6f87182341f29844b10d892d053,139.140.201.45,"Mozilla/5.0 (Macintosh; Intel Mac OS X 10_15_7) AppleWebKit/537.36 (KHTML, like Gecko) Chrome/131.0.0.0 Safari/537.36",Macintosh,Chrome,131.0.0.0,OS X,10_15_7,https://srgdqim9z7.cognition.run/?sona_id=13331,"en-US,en;q=0.9",13331,631033177,"[{""page_index"":0,""viewing_time"":20145}]",20146,,,,,,,,,,,,,,,,,,,,,,,
,,,,,html-keyboard-response,63,314281,0.0-2.0-6.0-0.0,1,2,2024-11-12 16:40:00,8e66e6f87182341f29844b10d892d053,139.140.201.45,"Mozilla/5.0 (Macintosh; Intel Mac OS X 10_15_7) AppleWebKit/537.36 (KHTML, like Gecko) Chrome/131.0.0.0 Safari/537.36",Macintosh,Chrome,131.0.0.0,OS X,10_15_7,https://srgdqim9z7.cognition.run/?sona_id=13331,"en-US,en;q=0.9",13331,631033177,,null,<span style = 'font-size:200%'>+</span>,null,fixation,,,,,,,,,,,,,,,,,,,,
,,,,,survey-text,64,317645,0.0-2.0-6.0-1.0,1,2,2024-11-12 16:40:00,8e66e6f87182341f29844b10d892d053,139.140.201.45,"Mozilla/5.0 (Macintosh; Intel Mac OS X 10_15_7) AppleWebKit/537.36 (KHTML, like Gecko) Chrome/131.0.0.0 Safari/537.36",Macintosh,Chrome,131.0.0.0,OS X,10_15_7,https://srgdqim9z7.cognition.run/?sona_id=13331,"en-US,en;q=0.9",13331,631033177,,3361,,rock,association,,,,,zock,,,,,,,,,,,,,,,
,,,,,html-keyboard-response,65,318148,0.0-2.0-6.0-0.1,1,2,2024-11-12 16:40:00,8e66e6f87182341f29844b10d892d053,139.140.201.45,"Mozilla/5.0 (Macintosh; Intel Mac OS X 10_15_7) AppleWebKit/537.36 (KHTML, like Gecko) Chrome/131.0.0.0 Safari/537.36",Macintosh,Chrome,131.0.0.0,OS X,10_15_7,https://srgdqim9z7.cognition.run/?sona_id=13331,"en-US,en;q=0.9",13331,631033177,,null,<span style = 'font-size:200%'>+</span>,null,fixation,,,,,,,,,,,,,,,,,,,,
,,,,,survey-text,66,320687,0.0-2.0-6.0-1.1,1,2,2024-11-12 16:40:00,8e66e6f87182341f29844b10d892d053,139.140.201.45,"Mozilla/5.0 (Macintosh; Intel Mac OS X 10_15_7) AppleWebKit/537.36 (KHTML, like Gecko) Chrome/131.0.0.0 Safari/537.36",Macintosh,Chrome,131.0.0.0,OS X,10_15_7,https://srgdqim9z7.cognition.run/?sona_id=13331,"en-US,en;q=0.9",13331,631033177,,2535,,cash,association,,,,,fash,,,,,,,,,,,,,,,
,,,,,html-keyboard-response,67,321190,0.0-2.0-6.0-0.2,1,2,2024-11-12 16:40:00,8e66e6f87182341f29844b10d892d053,139.140.201.45,"Mozilla/5.0 (Macintosh; Intel Mac OS X 10_15_7) AppleWebKit/537.36 (KHTML, like Gecko) Chrome/131.0.0.0 Safari/537.36",Macintosh,Chrome,131.0.0.0,OS X,10_15_7,https://srgdqim9z7.cognition.run/?sona_id=13331,"en-US,en;q=0.9",13331,631033177,,null,<span style = 'font-size:200%'>+</span>,null,fixation,,,,,,,,,,,,,,,,,,,,
,,,,,survey-text,68,323429,0.0-2.0-6.0-1.2,1,2,2024-11-12 16:40:00,8e66e6f87182341f29844b10d892d053,139.140.201.45,"Mozilla/5.0 (Macintosh; Intel Mac OS X 10_15_7) AppleWebKit/537.36 (KHTML, like Gecko) Chrome/131.0.0.0 Safari/537.36",Macintosh,Chrome,131.0.0.0,OS X,10_15_7,https://srgdqim9z7.cognition.run/?sona_id=13331,"en-US,en;q=0.9",13331,631033177,,2235,,rock,association,,,,,zock,,,,,,,,,,,,,,,
,,,,,html-keyboard-response,69,323933,0.0-2.0-6.0-0.3,1,2,2024-11-12 16:40:00,8e66e6f87182341f29844b10d892d053,139.140.201.45,"Mozilla/5.0 (Macintosh; Intel Mac OS X 10_15_7) AppleWebKit/537.36 (KHTML, like Gecko) Chrome/131.0.0.0 Safari/537.36",Macintosh,Chrome,131.0.0.0,OS X,10_15_7,https://srgdqim9z7.cognition.run/?sona_id=13331,"en-US,en;q=0.9",13331,631033177,,null,<span style = 'font-size:200%'>+</span>,null,fixation,,,,,,,,,,,,,,,,,,,,
,,,,,survey-text,70,326236,0.0-2.0-6.0-1.3,1,2,2024-11-12 16:40:00,8e66e6f87182341f29844b10d892d053,139.140.201.45,"Mozilla/5.0 (Macintosh; Intel Mac OS X 10_15_7) AppleWebKit/537.36 (KHTML, like Gecko) Chrome/131.0.0.0 Safari/537.36",Macintosh,Chrome,131.0.0.0,OS X,10_15_7,https://srgdqim9z7.cognition.run/?sona_id=13331,"en-US,en;q=0.9",13331,631033177,,2300,,cash,association,,,,,fash,,,,,,,,,,,,,,,
,,,,,html-keyboard-response,71,326739,0.0-2.0-6.0-0.4,1,2,2024-11-12 16:40:00,8e66e6f87182341f29844b10d892d053,139.140.201.45,"Mozilla/5.0 (Macintosh; Intel Mac OS X 10_15_7) AppleWebKit/537.36 (KHTML, like Gecko) Chrome/131.0.0.0 Safari/537.36",Macintosh,Chrome,131.0.0.0,OS X,10_15_7,https://srgdqim9z7.cognition.run/?sona_id=13331,"en-US,en;q=0.9",13331,631033177,,null,<span style = 'font-size:200%'>+</span>,null,fixation,,,,,,,,,,,,,,,,,,,,
,,,,,survey-text,72,330372,0.0-2.0-6.0-1.4,1,2,2024-11-12 16:40:00,8e66e6f87182341f29844b10d892d053,139.140.201.45,"Mozilla/5.0 (Macintosh; Intel Mac OS X 10_15_7) AppleWebKit/537.36 (KHTML, like Gecko) Chrome/131.0.0.0 Safari/537.36",Macintosh,Chrome,131.0.0.0,OS X,10_15_7,https://srgdqim9z7.cognition.run/?sona_id=13331,"en-US,en;q=0.9",13331,631033177,,3630,,rock,association,,,,,zock,,,,,,,,,,,,,,,
,,,,,html-keyboard-response,73,330876,0.0-2.0-6.0-0.5,1,2,2024-11-12 16:40:00,8e66e6f87182341f29844b10d892d053,139.140.201.45,"Mozilla/5.0 (Macintosh; Intel Mac OS X 10_15_7) AppleWebKit/537.36 (KHTML, like Gecko) Chrome/131.0.0.0 Safari/537.36",Macintosh,Chrome,131.0.0.0,OS X,10_15_7,https://srgdqim9z7.cognition.run/?sona_id=13331,"en-US,en;q=0.9",13331,631033177,,null,<span style = 'font-size:200%'>+</span>,null,fixation,,,,,,,,,,,,,,,,,,,,
,,,,,survey-text,74,333283,0.0-2.0-6.0-1.5,1,2,2024-11-12 16:40:00,8e66e6f87182341f29844b10d892d053,139.140.201.45,"Mozilla/5.0 (Macintosh; Intel Mac OS X 10_15_7) AppleWebKit/537.36 (KHTML, like Gecko) Chrome/131.0.0.0 Safari/537.36",Macintosh,Chrome,131.0.0.0,OS X,10_15_7,https://srgdqim9z7.cognition.run/?sona_id=13331,"en-US,en;q=0.9",13331,631033177,,2404,,cash,association,,,,,fash,,,,,,,,,,,,,,,
,,,,,instructions,75,342112,0.0-2.0-7.0,1,2,2024-11-12 16:40:00,8e66e6f87182341f29844b10d892d053,139.140.201.45,"Mozilla/5.0 (Macintosh; Intel Mac OS X 10_15_7) AppleWebKit/537.36 (KHTML, like Gecko) Chrome/131.0.0.0 Safari/537.36",Macintosh,Chrome,131.0.0.0,OS X,10_15_7,https://srgdqim9z7.cognition.run/?sona_id=13331,"en-US,en;q=0.9",13331,631033177,"[{""page_index"":0,""viewing_time"":5946},{""page_index"":1,""viewing_time"":2880}]",8826,,,,,,,,,,,,,,,,,,,,,,,
,,,,,html-keyboard-response,76,346045,0.0-2.0-8.0-0.0,1,2,2024-11-12 16:40:00,8e66e6f87182341f29844b10d892d053,139.140.201.45,"Mozilla/5.0 (Macintosh; Intel Mac OS X 10_15_7) AppleWebKit/537.36 (KHTML, like Gecko) Chrome/131.0.0.0 Safari/537.36",Macintosh,Chrome,131.0.0.0,OS X,10_15_7,https://srgdqim9z7.cognition.run/?sona_id=13331,"en-US,en;q=0.9",13331,631033177,,3931,I went to a place where it's easy to find a zock rock.," ",sentence,I went to a place where it's easy to find a zock rock.,zock,NOT_FOUND,,,,,,,,,,,,,,,,,
,,,,,html-keyboard-response,77,347779,0.0-2.0-8.0-0.1,1,2,2024-11-12 16:40:00,8e66e6f87182341f29844b10d892d053,139.140.201.45,"Mozilla/5.0 (Macintosh; Intel Mac OS X 10_15_7) AppleWebKit/537.36 (KHTML, like Gecko) Chrome/131.0.0.0 Safari/537.36",Macintosh,Chrome,131.0.0.0,OS X,10_15_7,https://srgdqim9z7.cognition.run/?sona_id=13331,"en-US,en;q=0.9",13331,631033177,,1732,I would really love to have a zock rock.," ",sentence,I would really love to have a zock rock.,zock,NOT_FOUND,,,,,,,,,,,,,,,,,
,,,,,html-keyboard-response,78,349105,0.0-2.0-8.0-0.2,1,2,2024-11-12 16:40:00,8e66e6f87182341f29844b10d892d053,139.140.201.45,"Mozilla/5.0 (Macintosh; Intel Mac OS X 10_15_7) AppleWebKit/537.36 (KHTML, like Gecko) Chrome/131.0.0.0 Safari/537.36",Macintosh,Chrome,131.0.0.0,OS X,10_15_7,https://srgdqim9z7.cognition.run/?sona_id=13331,"en-US,en;q=0.9",13331,631033177,,1323,One lady offered me a zock rock.," ",sentence,One lady offered me a zock rock.,zock,NOT_FOUND,,,,,,,,,,,,,,,,,
,,,,,html-keyboard-response,79,350475,0.0-2.0-8.0-0.3,1,2,2024-11-12 16:40:00,8e66e6f87182341f29844b10d892d053,139.140.201.45,"Mozilla/5.0 (Macintosh; Intel Mac OS X 10_15_7) AppleWebKit/537.36 (KHTML, like Gecko) Chrome/131.0.0.0 Safari/537.36",Macintosh,Chrome,131.0.0.0,OS X,10_15_7,https://srgdqim9z7.cognition.run/?sona_id=13331,"en-US,en;q=0.9",13331,631033177,,1368,"In the end, I decided I'd go looking for a zock rock."," ",sentence,"In the end, I decided I'd go looking for a zock rock.",zock,NOT_FOUND,,,,,,,,,,,,,,,,,
,,,,,html-keyboard-response,80,351961,0.0-2.0-8.0-0.4,1,2,2024-11-12 16:40:00,8e66e6f87182341f29844b10d892d053,139.140.201.45,"Mozilla/5.0 (Macintosh; Intel Mac OS X 10_15_7) AppleWebKit/537.36 (KHTML, like Gecko) Chrome/131.0.0.0 Safari/537.36",Macintosh,Chrome,131.0.0.0,OS X,10_15_7,https://srgdqim9z7.cognition.run/?sona_id=13331,"en-US,en;q=0.9",13331,631033177,,1485,"On the eleventh day of my trip, I found fash cash."," ",sentence,"On the eleventh day of my trip, I found fash cash.",fash,NOT_FOUND,,,,,,,,,,,,,,,,,
,,,,,html-keyboard-response,81,353326,0.0-2.0-8.0-0.5,1,2,2024-11-12 16:40:00,8e66e6f87182341f29844b10d892d053,139.140.201.45,"Mozilla/5.0 (Macintosh; Intel Mac OS X 10_15_7) AppleWebKit/537.36 (KHTML, like Gecko) Chrome/131.0.0.0 Safari/537.36",Macintosh,Chrome,131.0.0.0,OS X,10_15_7,https://srgdqim9z7.cognition.run/?sona_id=13331,"en-US,en;q=0.9",13331,631033177,,1363,The people I met there told me they saw a zock rock that day.," ",sentence,The people I met there told me they saw a zock rock that day.,zock,NOT_FOUND,,,,,,,,,,,,,,,,,
,,,,,html-keyboard-response,82,354683,0.0-2.0-8.0-0.6,1,2,2024-11-12 16:40:00,8e66e6f87182341f29844b10d892d053,139.140.201.45,"Mozilla/5.0 (Macintosh; Intel Mac OS X 10_15_7) AppleWebKit/537.36 (KHTML, like Gecko) Chrome/131.0.0.0 Safari/537.36",Macintosh,Chrome,131.0.0.0,OS X,10_15_7,https://srgdqim9z7.cognition.run/?sona_id=13331,"en-US,en;q=0.9",13331,631033177,,1355,You never know with fash cash.," ",sentence,You never know with fash cash.,fash,NOT_FOUND,,,,,,,,,,,,,,,,,
,,,,,html-keyboard-response,83,355931,0.0-2.0-8.0-0.7,1,2,2024-11-12 16:40:00,8e66e6f87182341f29844b10d892d053,139.140.201.45,"Mozilla/5.0 (Macintosh; Intel Mac OS X 10_15_7) AppleWebKit/537.36 (KHTML, like Gecko) Chrome/131.0.0.0 Safari/537.36",Macintosh,Chrome,131.0.0.0,OS X,10_15_7,https://srgdqim9z7.cognition.run/?sona_id=13331,"en-US,en;q=0.9",13331,631033177,,1245,I only found fash cash.," ",sentence,I only found fash cash.,fash,NOT_FOUND,,,,,,,,,,,,,,,,,
,,,,,html-keyboard-response,84,357515,0.0-2.0-8.0-0.8,1,2,2024-11-12 16:40:00,8e66e6f87182341f29844b10d892d053,139.140.201.45,"Mozilla/5.0 (Macintosh; Intel Mac OS X 10_15_7) AppleWebKit/537.36 (KHTML, like Gecko) Chrome/131.0.0.0 Safari/537.36",Macintosh,Chrome,131.0.0.0,OS X,10_15_7,https://srgdqim9z7.cognition.run/?sona_id=13331,"en-US,en;q=0.9",13331,631033177,,1581,There are people who prefer fash cash.," ",sentence,There are people who prefer fash cash.,fash,NOT_FOUND,,,,,,,,,,,,,,,,,
,,,,,survey-text,85,360579,0.0-2.0-8.0-1.8-0.8,1,2,2024-11-12 16:40:00,8e66e6f87182341f29844b10d892d053,139.140.201.45,"Mozilla/5.0 (Macintosh; Intel Mac OS X 10_15_7) AppleWebKit/537.36 (KHTML, like Gecko) Chrome/131.0.0.0 Safari/537.36",Macintosh,Chrome,131.0.0.0,OS X,10_15_7,https://srgdqim9z7.cognition.run/?sona_id=13331,"en-US,en;q=0.9",13331,631033177,,3060,,fash,attention,,fash,NOT_FOUND,1,,,,,,,,,,,,,,,,
,,,,,html-keyboard-response,86,362856,0.0-2.0-8.0-0.9,1,2,2024-11-12 16:40:00,8e66e6f87182341f29844b10d892d053,139.140.201.45,"Mozilla/5.0 (Macintosh; Intel Mac OS X 10_15_7) AppleWebKit/537.36 (KHTML, like Gecko) Chrome/131.0.0.0 Safari/537.36",Macintosh,Chrome,131.0.0.0,OS X,10_15_7,https://srgdqim9z7.cognition.run/?sona_id=13331,"en-US,en;q=0.9",13331,631033177,,2274,I have a picture of a fash cash.," ",sentence,I have a picture of a fash cash.,fash,NOT_FOUND,,,,,,,,,,,,,,,,,
,,,,,html-keyboard-response,87,364767,0.0-2.0-8.0-0.10,1,2,2024-11-12 16:40:00,8e66e6f87182341f29844b10d892d053,139.140.201.45,"Mozilla/5.0 (Macintosh; Intel Mac OS X 10_15_7) AppleWebKit/537.36 (KHTML, like Gecko) Chrome/131.0.0.0 Safari/537.36",Macintosh,Chrome,131.0.0.0,OS X,10_15_7,https://srgdqim9z7.cognition.run/?sona_id=13331,"en-US,en;q=0.9",13331,631033177,,1909,Everybody I met in Zimziland would love to have a zock rock.," ",sentence,Everybody I met in Zimziland would love to have a zock rock.,zock,Zimziland,,,,,,,,,,,,,,,,,
,,,,,html-keyboard-response,88,366719,0.0-2.0-8.0-0.11,1,2,2024-11-12 16:40:00,8e66e6f87182341f29844b10d892d053,139.140.201.45,"Mozilla/5.0 (Macintosh; Intel Mac OS X 10_15_7) AppleWebKit/537.36 (KHTML, like Gecko) Chrome/131.0.0.0 Safari/537.36",Macintosh,Chrome,131.0.0.0,OS X,10_15_7,https://srgdqim9z7.cognition.run/?sona_id=13331,"en-US,en;q=0.9",13331,631033177,,1949,My sister doesn't like to have a zock rock.," ",sentence,My sister doesn't like to have a zock rock.,zock,NOT_FOUND,,,,,,,,,,,,,,,,,
,,,,,html-keyboard-response,89,367989,0.0-2.0-8.0-0.12,1,2,2024-11-12 16:40:00,8e66e6f87182341f29844b10d892d053,139.140.201.45,"Mozilla/5.0 (Macintosh; Intel Mac OS X 10_15_7) AppleWebKit/537.36 (KHTML, like Gecko) Chrome/131.0.0.0 Safari/537.36",Macintosh,Chrome,131.0.0.0,OS X,10_15_7,https://srgdqim9z7.cognition.run/?sona_id=13331,"en-US,en;q=0.9",13331,631033177,,1266,I am not sure if I would like fash cash better.," ",sentence,I am not sure if I would like fash cash better.,fash,NOT_FOUND,,,,,,,,,,,,,,,,,
,,,,,html-keyboard-response,90,369949,0.0-2.0-8.0-0.13,1,2,2024-11-12 16:40:00,8e66e6f87182341f29844b10d892d053,139.140.201.45,"Mozilla/5.0 (Macintosh; Intel Mac OS X 10_15_7) AppleWebKit/537.36 (KHTML, like Gecko) Chrome/131.0.0.0 Safari/537.36",Macintosh,Chrome,131.0.0.0,OS X,10_15_7,https://srgdqim9z7.cognition.run/?sona_id=13331,"en-US,en;q=0.9",13331,631033177,,1958,I went to Zimziland because I heard you can get a zock rock  there.," ",sentence,I went to Zimziland because I heard you can get a zock rock  there.,zock,Zimziland,,,,,,,,,,,,,,,,,
,,,,,survey-text,91,376825,0.0-2.0-8.0-1.13-0.13,1,2,2024-11-12 16:40:00,8e66e6f87182341f29844b10d892d053,139.140.201.45,"Mozilla/5.0 (Macintosh; Intel Mac OS X 10_15_7) AppleWebKit/537.36 (KHTML, like Gecko) Chrome/131.0.0.0 Safari/537.36",Macintosh,Chrome,131.0.0.0,OS X,10_15_7,https://srgdqim9z7.cognition.run/?sona_id=13331,"en-US,en;q=0.9",13331,631033177,,6875,,Zimziland,attention,,zock,Zimziland,1,,,,,,,,,,,,,,,,
,,,,,html-keyboard-response,92,380960,0.0-2.0-8.0-0.14,1,2,2024-11-12 16:40:00,8e66e6f87182341f29844b10d892d053,139.140.201.45,"Mozilla/5.0 (Macintosh; Intel Mac OS X 10_15_7) AppleWebKit/537.36 (KHTML, like Gecko) Chrome/131.0.0.0 Safari/537.36",Macintosh,Chrome,131.0.0.0,OS X,10_15_7,https://srgdqim9z7.cognition.run/?sona_id=13331,"en-US,en;q=0.9",13331,631033177,,4132,I would love to see fash cash.," ",sentence,I would love to see fash cash.,fash,NOT_FOUND,,,,,,,,,,,,,,,,,
,,,,,survey-text,93,383854,0.0-2.0-8.0-1.14-0.14,1,2,2024-11-12 16:40:00,8e66e6f87182341f29844b10d892d053,139.140.201.45,"Mozilla/5.0 (Macintosh; Intel Mac OS X 10_15_7) AppleWebKit/537.36 (KHTML, like Gecko) Chrome/131.0.0.0 Safari/537.36",Macintosh,Chrome,131.0.0.0,OS X,10_15_7,https://srgdqim9z7.cognition.run/?sona_id=13331,"en-US,en;q=0.9",13331,631033177,,2890,,fash,attention,,fash,NOT_FOUND,1,,,,,,,,,,,,,,,,
,,,,,html-keyboard-response,94,385855,0.0-2.0-8.0-0.15,1,2,2024-11-12 16:40:00,8e66e6f87182341f29844b10d892d053,139.140.201.45,"Mozilla/5.0 (Macintosh; Intel Mac OS X 10_15_7) AppleWebKit/537.36 (KHTML, like Gecko) Chrome/131.0.0.0 Safari/537.36",Macintosh,Chrome,131.0.0.0,OS X,10_15_7,https://srgdqim9z7.cognition.run/?sona_id=13331,"en-US,en;q=0.9",13331,631033177,,1999,"As soon as I arrived, I noticed a zock rock."," ",sentence,"As soon as I arrived, I noticed a zock rock.",zock,NOT_FOUND,,,,,,,,,,,,,,,,,
,,,,,html-keyboard-response,95,386709,0.0-2.0-8.0-0.16,1,2,2024-11-12 16:40:00,8e66e6f87182341f29844b10d892d053,139.140.201.45,"Mozilla/5.0 (Macintosh; Intel Mac OS X 10_15_7) AppleWebKit/537.36 (KHTML, like Gecko) Chrome/131.0.0.0 Safari/537.36",Macintosh,Chrome,131.0.0.0,OS X,10_15_7,https://srgdqim9z7.cognition.run/?sona_id=13331,"en-US,en;q=0.9",13331,631033177,,851,Maybe I would prefer a zock rock.," ",sentence,Maybe I would prefer a zock rock.,zock,NOT_FOUND,,,,,,,,,,,,,,,,,
,,,,,html-keyboard-response,96,388049,0.0-2.0-8.0-0.17,1,2,2024-11-12 16:40:00,8e66e6f87182341f29844b10d892d053,139.140.201.45,"Mozilla/5.0 (Macintosh; Intel Mac OS X 10_15_7) AppleWebKit/537.36 (KHTML, like Gecko) Chrome/131.0.0.0 Safari/537.36",Macintosh,Chrome,131.0.0.0,OS X,10_15_7,https://srgdqim9z7.cognition.run/?sona_id=13331,"en-US,en;q=0.9",13331,631033177,,1338,"She offered me fash cash, too."," ",sentence,"She offered me fash cash, too.",fash,NOT_FOUND,,,,,,,,,,,,,,,,,
,,,,,html-keyboard-response,97,389837,0.0-2.0-8.0-0.18,1,2,2024-11-12 16:40:00,8e66e6f87182341f29844b10d892d053,139.140.201.45,"Mozilla/5.0 (Macintosh; Intel Mac OS X 10_15_7) AppleWebKit/537.36 (KHTML, like Gecko) Chrome/131.0.0.0 Safari/537.36",Macintosh,Chrome,131.0.0.0,OS X,10_15_7,https://srgdqim9z7.cognition.run/?sona_id=13331,"en-US,en;q=0.9",13331,631033177,,1785,I hadn't seen fash cash for hours.," ",sentence,I hadn't seen fash cash for hours.,fash,NOT_FOUND,,,,,,,,,,,,,,,,,
,,,,,html-keyboard-response,98,392255,0.0-2.0-8.0-0.19,1,2,2024-11-12 16:40:00,8e66e6f87182341f29844b10d892d053,139.140.201.45,"Mozilla/5.0 (Macintosh; Intel Mac OS X 10_15_7) AppleWebKit/537.36 (KHTML, like Gecko) Chrome/131.0.0.0 Safari/537.36",Macintosh,Chrome,131.0.0.0,OS X,10_15_7,https://srgdqim9z7.cognition.run/?sona_id=13331,"en-US,en;q=0.9",13331,631033177,,2416,"There is no doubt, fash cash is the best!"," ",sentence,"There is no doubt, fash cash is the best!",fash,NOT_FOUND,,,,,,,,,,,,,,,,,
,,,,,instructions,99,414391,0.0-2.0-9.0,1,2,2024-11-12 16:40:00,8e66e6f87182341f29844b10d892d053,139.140.201.45,"Mozilla/5.0 (Macintosh; Intel Mac OS X 10_15_7) AppleWebKit/537.36 (KHTML, like Gecko) Chrome/131.0.0.0 Safari/537.36",Macintosh,Chrome,131.0.0.0,OS X,10_15_7,https://srgdqim9z7.cognition.run/?sona_id=13331,"en-US,en;q=0.9",13331,631033177,"[{""page_index"":0,""viewing_time"":22133}]",22134,,,,,,,,,,,,,,,,,,,,,,,
,,,,,html-keyboard-response,100,414896,0.0-2.0-10.0-0.0,1,2,2024-11-12 16:40:00,8e66e6f87182341f29844b10d892d053,139.140.201.45,"Mozilla/5.0 (Macintosh; Intel Mac OS X 10_15_7) AppleWebKit/537.36 (KHTML, like Gecko) Chrome/131.0.0.0 Safari/537.36",Macintosh,Chrome,131.0.0.0,OS X,10_15_7,https://srgdqim9z7.cognition.run/?sona_id=13331,"en-US,en;q=0.9",13331,631033177,,null,<span style = 'font-size:200%'>+</span>,null,fixation,,,,,,,,,,,,,,,,,,,,
,,,,,survey-text,101,418008,0.0-2.0-10.0-1.0,1,2,2024-11-12 16:40:00,8e66e6f87182341f29844b10d892d053,139.140.201.45,"Mozilla/5.0 (Macintosh; Intel Mac OS X 10_15_7) AppleWebKit/537.36 (KHTML, like Gecko) Chrome/131.0.0.0 Safari/537.36",Macintosh,Chrome,131.0.0.0,OS X,10_15_7,https://srgdqim9z7.cognition.run/?sona_id=13331,"en-US,en;q=0.9",13331,631033177,,3107,,cash,association,,,,,fash,,,,,,,,,,,,,,,
,,,,,html-keyboard-response,102,418512,0.0-2.0-10.0-0.1,1,2,2024-11-12 16:40:00,8e66e6f87182341f29844b10d892d053,139.140.201.45,"Mozilla/5.0 (Macintosh; Intel Mac OS X 10_15_7) AppleWebKit/537.36 (KHTML, like Gecko) Chrome/131.0.0.0 Safari/537.36",Macintosh,Chrome,131.0.0.0,OS X,10_15_7,https://srgdqim9z7.cognition.run/?sona_id=13331,"en-US,en;q=0.9",13331,631033177,,null,<span style = 'font-size:200%'>+</span>,null,fixation,,,,,,,,,,,,,,,,,,,,
,,,,,survey-text,103,423738,0.0-2.0-10.0-1.1,1,2,2024-11-12 16:40:00,8e66e6f87182341f29844b10d892d053,139.140.201.45,"Mozilla/5.0 (Macintosh; Intel Mac OS X 10_15_7) AppleWebKit/537.36 (KHTML, like Gecko) Chrome/131.0.0.0 Safari/537.36",Macintosh,Chrome,131.0.0.0,OS X,10_15_7,https://srgdqim9z7.cognition.run/?sona_id=13331,"en-US,en;q=0.9",13331,631033177,,5223,,Zimziland,association,,,,,zock,,,,,,,,,,,,,,,
,,,,,html-keyboard-response,104,424241,0.0-2.0-10.0-0.2,1,2,2024-11-12 16:40:00,8e66e6f87182341f29844b10d892d053,139.140.201.45,"Mozilla/5.0 (Macintosh; Intel Mac OS X 10_15_7) AppleWebKit/537.36 (KHTML, like Gecko) Chrome/131.0.0.0 Safari/537.36",Macintosh,Chrome,131.0.0.0,OS X,10_15_7,https://srgdqim9z7.cognition.run/?sona_id=13331,"en-US,en;q=0.9",13331,631033177,,null,<span style = 'font-size:200%'>+</span>,null,fixation,,,,,,,,,,,,,,,,,,,,
,,,,,survey-text,105,427013,0.0-2.0-10.0-1.2,1,2,2024-11-12 16:40:00,8e66e6f87182341f29844b10d892d053,139.140.201.45,"Mozilla/5.0 (Macintosh; Intel Mac OS X 10_15_7) AppleWebKit/537.36 (KHTML, like Gecko) Chrome/131.0.0.0 Safari/537.36",Macintosh,Chrome,131.0.0.0,OS X,10_15_7,https://srgdqim9z7.cognition.run/?sona_id=13331,"en-US,en;q=0.9",13331,631033177,,2767,,cash,association,,,,,fash,,,,,,,,,,,,,,,
,,,,,html-keyboard-response,106,427517,0.0-2.0-10.0-0.3,1,2,2024-11-12 16:40:00,8e66e6f87182341f29844b10d892d053,139.140.201.45,"Mozilla/5.0 (Macintosh; Intel Mac OS X 10_15_7) AppleWebKit/537.36 (KHTML, like Gecko) Chrome/131.0.0.0 Safari/537.36",Macintosh,Chrome,131.0.0.0,OS X,10_15_7,https://srgdqim9z7.cognition.run/?sona_id=13331,"en-US,en;q=0.9",13331,631033177,,null,<span style = 'font-size:200%'>+</span>,null,fixation,,,,,,,,,,,,,,,,,,,,
,,,,,survey-text,107,429851,0.0-2.0-10.0-1.3,1,2,2024-11-12 16:40:00,8e66e6f87182341f29844b10d892d053,139.140.201.45,"Mozilla/5.0 (Macintosh; Intel Mac OS X 10_15_7) AppleWebKit/537.36 (KHTML, like Gecko) Chrome/131.0.0.0 Safari/537.36",Macintosh,Chrome,131.0.0.0,OS X,10_15_7,https://srgdqim9z7.cognition.run/?sona_id=13331,"en-US,en;q=0.9",13331,631033177,,2330,,rock,association,,,,,zock,,,,,,,,,,,,,,,
,,,,,html-keyboard-response,108,430355,0.0-2.0-10.0-0.4,1,2,2024-11-12 16:40:00,8e66e6f87182341f29844b10d892d053,139.140.201.45,"Mozilla/5.0 (Macintosh; Intel Mac OS X 10_15_7) AppleWebKit/537.36 (KHTML, like Gecko) Chrome/131.0.0.0 Safari/537.36",Macintosh,Chrome,131.0.0.0,OS X,10_15_7,https://srgdqim9z7.cognition.run/?sona_id=13331,"en-US,en;q=0.9",13331,631033177,,null,<span style = 'font-size:200%'>+</span>,null,fixation,,,,,,,,,,,,,,,,,,,,
,,,,,survey-text,109,432783,0.0-2.0-10.0-1.4,1,2,2024-11-12 16:40:00,8e66e6f87182341f29844b10d892d053,139.140.201.45,"Mozilla/5.0 (Macintosh; Intel Mac OS X 10_15_7) AppleWebKit/537.36 (KHTML, like Gecko) Chrome/131.0.0.0 Safari/537.36",Macintosh,Chrome,131.0.0.0,OS X,10_15_7,https://srgdqim9z7.cognition.run/?sona_id=13331,"en-US,en;q=0.9",13331,631033177,,2422,,cash,association,,,,,fash,,,,,,,,,,,,,,,
,,,,,html-keyboard-response,110,433287,0.0-2.0-10.0-0.5,1,2,2024-11-12 16:40:00,8e66e6f87182341f29844b10d892d053,139.140.201.45,"Mozilla/5.0 (Macintosh; Intel Mac OS X 10_15_7) AppleWebKit/537.36 (KHTML, like Gecko) Chrome/131.0.0.0 Safari/537.36",Macintosh,Chrome,131.0.0.0,OS X,10_15_7,https://srgdqim9z7.cognition.run/?sona_id=13331,"en-US,en;q=0.9",13331,631033177,,null,<span style = 'font-size:200%'>+</span>,null,fixation,,,,,,,,,,,,,,,,,,,,
,,,,,survey-text,111,436976,0.0-2.0-10.0-1.5,1,2,2024-11-12 16:40:00,8e66e6f87182341f29844b10d892d053,139.140.201.45,"Mozilla/5.0 (Macintosh; Intel Mac OS X 10_15_7) AppleWebKit/537.36 (KHTML, like Gecko) Chrome/131.0.0.0 Safari/537.36",Macintosh,Chrome,131.0.0.0,OS X,10_15_7,https://srgdqim9z7.cognition.run/?sona_id=13331,"en-US,en;q=0.9",13331,631033177,,3685,,Zimziland,association,,,,,zock,,,,,,,,,,,,,,,
,,,,,instructions,112,511979,0.0-3.0,1,2,2024-11-12 16:40:00,8e66e6f87182341f29844b10d892d053,139.140.201.45,"Mozilla/5.0 (Macintosh; Intel Mac OS X 10_15_7) AppleWebKit/537.36 (KHTML, like Gecko) Chrome/131.0.0.0 Safari/537.36",Macintosh,Chrome,131.0.0.0,OS X,10_15_7,https://srgdqim9z7.cognition.run/?sona_id=13331,"en-US,en;q=0.9",13331,631033177,"[{""page_index"":0,""viewing_time"":59280},{""page_index"":1,""viewing_time"":15719}]",75000,,,,,,,,,,,,,,,,,,,,,,,
,,,,,html-keyboard-response,113,512483,0.0-4.0-0.0,1,2,2024-11-12 16:40:00,8e66e6f87182341f29844b10d892d053,139.140.201.45,"Mozilla/5.0 (Macintosh; Intel Mac OS X 10_15_7) AppleWebKit/537.36 (KHTML, like Gecko) Chrome/131.0.0.0 Safari/537.36",Macintosh,Chrome,131.0.0.0,OS X,10_15_7,https://srgdqim9z7.cognition.run/?sona_id=13331,"en-US,en;q=0.9",13331,631033177,,null,<span style = 'font-size:200%'>+</span>,null,fixation,,,,,,,,,,,,,,,,,,,,
,,,,,image-keyboard-response,114,512991,0.0-4.0-1.0,1,2,2024-11-12 16:40:00,8e66e6f87182341f29844b10d892d053,139.140.201.45,"Mozilla/5.0 (Macintosh; Intel Mac OS X 10_15_7) AppleWebKit/537.36 (KHTML, like Gecko) Chrome/131.0.0.0 Safari/537.36",Macintosh,Chrome,131.0.0.0,OS X,10_15_7,https://srgdqim9z7.cognition.run/?sona_id=13331,"en-US,en;q=0.9",13331,631033177,,null,rock-cash.png,null,image,,,,,,,,,,,,,,,,,,,,
,,,,,image-keyboard-response,115,513296,0.0-4.0-2.0,1,2,2024-11-12 16:40:00,8e66e6f87182341f29844b10d892d053,139.140.201.45,"Mozilla/5.0 (Macintosh; Intel Mac OS X 10_15_7) AppleWebKit/537.36 (KHTML, like Gecko) Chrome/131.0.0.0 Safari/537.36",Macintosh,Chrome,131.0.0.0,OS X,10_15_7,https://srgdqim9z7.cognition.run/?sona_id=13331,"en-US,en;q=0.9",13331,631033177,,null,rock-cash.png,null,,,,,,,,,,,,,,,,,,,,,
,,,,,image-keyboard-response,116,514227,0.0-4.0-3.0,1,2,2024-11-12 16:40:00,8e66e6f87182341f29844b10d892d053,139.140.201.45,"Mozilla/5.0 (Macintosh; Intel Mac OS X 10_15_7) AppleWebKit/537.36 (KHTML, like Gecko) Chrome/131.0.0.0 Safari/537.36",Macintosh,Chrome,131.0.0.0,OS X,10_15_7,https://srgdqim9z7.cognition.run/?sona_id=13331,"en-US,en;q=0.9",13331,631033177,,927,rock-cash.png,l,target,,,,true,,cash,boff,novel,novel,L,practice,,,,,,,,,
,,,,,html-keyboard-response,117,516732,0.0-4.0-4.0,1,2,2024-11-12 16:40:00,8e66e6f87182341f29844b10d892d053,139.140.201.45,"Mozilla/5.0 (Macintosh; Intel Mac OS X 10_15_7) AppleWebKit/537.36 (KHTML, like Gecko) Chrome/131.0.0.0 Safari/537.36",Macintosh,Chrome,131.0.0.0,OS X,10_15_7,https://srgdqim9z7.cognition.run/?sona_id=13331,"en-US,en;q=0.9",13331,631033177,,null,<b>Too slow</b>! <br><br> Please try to respond faster.,null,feedback,,,,,,,,,,,,,,,,,,,,
,,,,,html-keyboard-response,118,517236,0.0-4.0-0.1,1,2,2024-11-12 16:40:00,8e66e6f87182341f29844b10d892d053,139.140.201.45,"Mozilla/5.0 (Macintosh; Intel Mac OS X 10_15_7) AppleWebKit/537.36 (KHTML, like Gecko) Chrome/131.0.0.0 Safari/537.36",Macintosh,Chrome,131.0.0.0,OS X,10_15_7,https://srgdqim9z7.cognition.run/?sona_id=13331,"en-US,en;q=0.9",13331,631033177,,null,<span style = 'font-size:200%'>+</span>,null,fixation,,,,,,,,,,,,,,,,,,,,
,,,,,image-keyboard-response,119,517742,0.0-4.0-1.1,1,2,2024-11-12 16:40:00,8e66e6f87182341f29844b10d892d053,139.140.201.45,"Mozilla/5.0 (Macintosh; Intel Mac OS X 10_15_7) AppleWebKit/537.36 (KHTML, like Gecko) Chrome/131.0.0.0 Safari/537.36",Macintosh,Chrome,131.0.0.0,OS X,10_15_7,https://srgdqim9z7.cognition.run/?sona_id=13331,"en-US,en;q=0.9",13331,631033177,,null,rock-cash.png,null,image,,,,,,,,,,,,,,,,,,,,
,,,,,image-keyboard-response,120,518047,0.0-4.0-2.1,1,2,2024-11-12 16:40:00,8e66e6f87182341f29844b10d892d053,139.140.201.45,"Mozilla/5.0 (Macintosh; Intel Mac OS X 10_15_7) AppleWebKit/537.36 (KHTML, like Gecko) Chrome/131.0.0.0 Safari/537.36",Macintosh,Chrome,131.0.0.0,OS X,10_15_7,https://srgdqim9z7.cognition.run/?sona_id=13331,"en-US,en;q=0.9",13331,631033177,,null,rock-cash.png,null,,,,,,,,,,,,,,,,,,,,,
,,,,,image-keyboard-response,121,518363,0.0-4.0-3.1,1,2,2024-11-12 16:40:00,8e66e6f87182341f29844b10d892d053,139.140.201.45,"Mozilla/5.0 (Macintosh; Intel Mac OS X 10_15_7) AppleWebKit/537.36 (KHTML, like Gecko) Chrome/131.0.0.0 Safari/537.36",Macintosh,Chrome,131.0.0.0,OS X,10_15_7,https://srgdqim9z7.cognition.run/?sona_id=13331,"en-US,en;q=0.9",13331,631033177,,312,rock-cash.png,a,target,,,,true,,rock,nuppical,novel,novel,A,practice,,,,,,,,,
,,,,,html-keyboard-response,122,520867,0.0-4.0-4.1,1,2,2024-11-12 16:40:00,8e66e6f87182341f29844b10d892d053,139.140.201.45,"Mozilla/5.0 (Macintosh; Intel Mac OS X 10_15_7) AppleWebKit/537.36 (KHTML, like Gecko) Chrome/131.0.0.0 Safari/537.36",Macintosh,Chrome,131.0.0.0,OS X,10_15_7,https://srgdqim9z7.cognition.run/?sona_id=13331,"en-US,en;q=0.9",13331,631033177,,null,<b>Correct</b>!,null,feedback,,,,,,,,,,,,,,,,,,,,
,,,,,html-keyboard-response,123,521373,0.0-4.0-0.2,1,2,2024-11-12 16:40:00,8e66e6f87182341f29844b10d892d053,139.140.201.45,"Mozilla/5.0 (Macintosh; Intel Mac OS X 10_15_7) AppleWebKit/537.36 (KHTML, like Gecko) Chrome/131.0.0.0 Safari/537.36",Macintosh,Chrome,131.0.0.0,OS X,10_15_7,https://srgdqim9z7.cognition.run/?sona_id=13331,"en-US,en;q=0.9",13331,631033177,,null,<span style = 'font-size:200%'>+</span>,null,fixation,,,,,,,,,,,,,,,,,,,,
,,,,,image-keyboard-response,124,521880,0.0-4.0-1.2,1,2,2024-11-12 16:40:00,8e66e6f87182341f29844b10d892d053,139.140.201.45,"Mozilla/5.0 (Macintosh; Intel Mac OS X 10_15_7) AppleWebKit/537.36 (KHTML, like Gecko) Chrome/131.0.0.0 Safari/537.36",Macintosh,Chrome,131.0.0.0,OS X,10_15_7,https://srgdqim9z7.cognition.run/?sona_id=13331,"en-US,en;q=0.9",13331,631033177,,null,cash-rock.png,null,image,,,,,,,,,,,,,,,,,,,,
,,,,,image-keyboard-response,125,522186,0.0-4.0-2.2,1,2,2024-11-12 16:40:00,8e66e6f87182341f29844b10d892d053,139.140.201.45,"Mozilla/5.0 (Macintosh; Intel Mac OS X 10_15_7) AppleWebKit/537.36 (KHTML, like Gecko) Chrome/131.0.0.0 Safari/537.36",Macintosh,Chrome,131.0.0.0,OS X,10_15_7,https://srgdqim9z7.cognition.run/?sona_id=13331,"en-US,en;q=0.9",13331,631033177,,null,cash-rock.png,null,,,,,,,,,,,,,,,,,,,,,
,,,,,image-keyboard-response,126,522726,0.0-4.0-3.2,1,2,2024-11-12 16:40:00,8e66e6f87182341f29844b10d892d053,139.140.201.45,"Mozilla/5.0 (Macintosh; Intel Mac OS X 10_15_7) AppleWebKit/537.36 (KHTML, like Gecko) Chrome/131.0.0.0 Safari/537.36",Macintosh,Chrome,131.0.0.0,OS X,10_15_7,https://srgdqim9z7.cognition.run/?sona_id=13331,"en-US,en;q=0.9",13331,631033177,,535,cash-rock.png,a,target,,,,false,,rock,boff,novel,novel,L,practice,,,,,,,,,
,,,,,html-keyboard-response,127,525230,0.0-4.0-4.2,1,2,2024-11-12 16:40:00,8e66e6f87182341f29844b10d892d053,139.140.201.45,"Mozilla/5.0 (Macintosh; Intel Mac OS X 10_15_7) AppleWebKit/537.36 (KHTML, like Gecko) Chrome/131.0.0.0 Safari/537.36",Macintosh,Chrome,131.0.0.0,OS X,10_15_7,https://srgdqim9z7.cognition.run/?sona_id=13331,"en-US,en;q=0.9",13331,631033177,,null,"<b>Incorrect</b>! <br><br> Please press A if the second word matches the picture on the left, and L if the second word matches the picture on the right.",null,feedback,,,,,,,,,,,,,,,,,,,,
,,,,,html-keyboard-response,128,525736,0.0-4.0-0.3,1,2,2024-11-12 16:40:00,8e66e6f87182341f29844b10d892d053,139.140.201.45,"Mozilla/5.0 (Macintosh; Intel Mac OS X 10_15_7) AppleWebKit/537.36 (KHTML, like Gecko) Chrome/131.0.0.0 Safari/537.36",Macintosh,Chrome,131.0.0.0,OS X,10_15_7,https://srgdqim9z7.cognition.run/?sona_id=13331,"en-US,en;q=0.9",13331,631033177,,null,<span style = 'font-size:200%'>+</span>,null,fixation,,,,,,,,,,,,,,,,,,,,
,,,,,image-keyboard-response,129,526243,0.0-4.0-1.3,1,2,2024-11-12 16:40:00,8e66e6f87182341f29844b10d892d053,139.140.201.45,"Mozilla/5.0 (Macintosh; Intel Mac OS X 10_15_7) AppleWebKit/537.36 (KHTML, like Gecko) Chrome/131.0.0.0 Safari/537.36",Macintosh,Chrome,131.0.0.0,OS X,10_15_7,https://srgdqim9z7.cognition.run/?sona_id=13331,"en-US,en;q=0.9",13331,631033177,,null,rock-cash.png,null,image,,,,,,,,,,,,,,,,,,,,
,,,,,image-keyboard-response,130,526549,0.0-4.0-2.3,1,2,2024-11-12 16:40:00,8e66e6f87182341f29844b10d892d053,139.140.201.45,"Mozilla/5.0 (Macintosh; Intel Mac OS X 10_15_7) AppleWebKit/537.36 (KHTML, like Gecko) Chrome/131.0.0.0 Safari/537.36",Macintosh,Chrome,131.0.0.0,OS X,10_15_7,https://srgdqim9z7.cognition.run/?sona_id=13331,"en-US,en;q=0.9",13331,631033177,,null,rock-cash.png,null,,,,,,,,,,,,,,,,,,,,,
,,,,,image-keyboard-response,131,527052,0.0-4.0-3.3,1,2,2024-11-12 16:40:00,8e66e6f87182341f29844b10d892d053,139.140.201.45,"Mozilla/5.0 (Macintosh; Intel Mac OS X 10_15_7) AppleWebKit/537.36 (KHTML, like Gecko) Chrome/131.0.0.0 Safari/537.36",Macintosh,Chrome,131.0.0.0,OS X,10_15_7,https://srgdqim9z7.cognition.run/?sona_id=13331,"en-US,en;q=0.9",13331,631033177,,499,rock-cash.png,l,target,,,,true,,cash,nuppical,novel,novel,L,practice,,,,,,,,,
,,,,,html-keyboard-response,132,529557,0.0-4.0-4.3,1,2,2024-11-12 16:40:00,8e66e6f87182341f29844b10d892d053,139.140.201.45,"Mozilla/5.0 (Macintosh; Intel Mac OS X 10_15_7) AppleWebKit/537.36 (KHTML, like Gecko) Chrome/131.0.0.0 Safari/537.36",Macintosh,Chrome,131.0.0.0,OS X,10_15_7,https://srgdqim9z7.cognition.run/?sona_id=13331,"en-US,en;q=0.9",13331,631033177,,null,<b>Correct</b>!,null,feedback,,,,,,,,,,,,,,,,,,,,
,,,,,html-keyboard-response,133,530060,0.0-4.0-0.4,1,2,2024-11-12 16:40:00,8e66e6f87182341f29844b10d892d053,139.140.201.45,"Mozilla/5.0 (Macintosh; Intel Mac OS X 10_15_7) AppleWebKit/537.36 (KHTML, like Gecko) Chrome/131.0.0.0 Safari/537.36",Macintosh,Chrome,131.0.0.0,OS X,10_15_7,https://srgdqim9z7.cognition.run/?sona_id=13331,"en-US,en;q=0.9",13331,631033177,,null,<span style = 'font-size:200%'>+</span>,null,fixation,,,,,,,,,,,,,,,,,,,,
,,,,,image-keyboard-response,134,530564,0.0-4.0-1.4,1,2,2024-11-12 16:40:00,8e66e6f87182341f29844b10d892d053,139.140.201.45,"Mozilla/5.0 (Macintosh; Intel Mac OS X 10_15_7) AppleWebKit/537.36 (KHTML, like Gecko) Chrome/131.0.0.0 Safari/537.36",Macintosh,Chrome,131.0.0.0,OS X,10_15_7,https://srgdqim9z7.cognition.run/?sona_id=13331,"en-US,en;q=0.9",13331,631033177,,null,rock-cash.png,null,image,,,,,,,,,,,,,,,,,,,,
,,,,,image-keyboard-response,135,530870,0.0-4.0-2.4,1,2,2024-11-12 16:40:00,8e66e6f87182341f29844b10d892d053,139.140.201.45,"Mozilla/5.0 (Macintosh; Intel Mac OS X 10_15_7) AppleWebKit/537.36 (KHTML, like Gecko) Chrome/131.0.0.0 Safari/537.36",Macintosh,Chrome,131.0.0.0,OS X,10_15_7,https://srgdqim9z7.cognition.run/?sona_id=13331,"en-US,en;q=0.9",13331,631033177,,null,rock-cash.png,null,,,,,,,,,,,,,,,,,,,,,
,,,,,image-keyboard-response,136,531419,0.0-4.0-3.4,1,2,2024-11-12 16:40:00,8e66e6f87182341f29844b10d892d053,139.140.201.45,"Mozilla/5.0 (Macintosh; Intel Mac OS X 10_15_7) AppleWebKit/537.36 (KHTML, like Gecko) Chrome/131.0.0.0 Safari/537.36",Macintosh,Chrome,131.0.0.0,OS X,10_15_7,https://srgdqim9z7.cognition.run/?sona_id=13331,"en-US,en;q=0.9",13331,631033177,,547,rock-cash.png,l,target,,,,true,,cash,boff,novel,novel,L,practice,,,,,,,,,
,,,,,html-keyboard-response,137,533924,0.0-4.0-4.4,1,2,2024-11-12 16:40:00,8e66e6f87182341f29844b10d892d053,139.140.201.45,"Mozilla/5.0 (Macintosh; Intel Mac OS X 10_15_7) AppleWebKit/537.36 (KHTML, like Gecko) Chrome/131.0.0.0 Safari/537.36",Macintosh,Chrome,131.0.0.0,OS X,10_15_7,https://srgdqim9z7.cognition.run/?sona_id=13331,"en-US,en;q=0.9",13331,631033177,,null,<b>Correct</b>!,null,feedback,,,,,,,,,,,,,,,,,,,,
,,,,,html-keyboard-response,138,534430,0.0-4.0-0.5,1,2,2024-11-12 16:40:00,8e66e6f87182341f29844b10d892d053,139.140.201.45,"Mozilla/5.0 (Macintosh; Intel Mac OS X 10_15_7) AppleWebKit/537.36 (KHTML, like Gecko) Chrome/131.0.0.0 Safari/537.36",Macintosh,Chrome,131.0.0.0,OS X,10_15_7,https://srgdqim9z7.cognition.run/?sona_id=13331,"en-US,en;q=0.9",13331,631033177,,null,<span style = 'font-size:200%'>+</span>,null,fixation,,,,,,,,,,,,,,,,,,,,
,,,,,image-keyboard-response,139,534936,0.0-4.0-1.5,1,2,2024-11-12 16:40:00,8e66e6f87182341f29844b10d892d053,139.140.201.45,"Mozilla/5.0 (Macintosh; Intel Mac OS X 10_15_7) AppleWebKit/537.36 (KHTML, like Gecko) Chrome/131.0.0.0 Safari/537.36",Macintosh,Chrome,131.0.0.0,OS X,10_15_7,https://srgdqim9z7.cognition.run/?sona_id=13331,"en-US,en;q=0.9",13331,631033177,,null,rock-cash.png,null,image,,,,,,,,,,,,,,,,,,,,
,,,,,image-keyboard-response,140,535243,0.0-4.0-2.5,1,2,2024-11-12 16:40:00,8e66e6f87182341f29844b10d892d053,139.140.201.45,"Mozilla/5.0 (Macintosh; Intel Mac OS X 10_15_7) AppleWebKit/537.36 (KHTML, like Gecko) Chrome/131.0.0.0 Safari/537.36",Macintosh,Chrome,131.0.0.0,OS X,10_15_7,https://srgdqim9z7.cognition.run/?sona_id=13331,"en-US,en;q=0.9",13331,631033177,,null,rock-cash.png,null,,,,,,,,,,,,,,,,,,,,,
,,,,,image-keyboard-response,141,535771,0.0-4.0-3.5,1,2,2024-11-12 16:40:00,8e66e6f87182341f29844b10d892d053,139.140.201.45,"Mozilla/5.0 (Macintosh; Intel Mac OS X 10_15_7) AppleWebKit/537.36 (KHTML, like Gecko) Chrome/131.0.0.0 Safari/537.36",Macintosh,Chrome,131.0.0.0,OS X,10_15_7,https://srgdqim9z7.cognition.run/?sona_id=13331,"en-US,en;q=0.9",13331,631033177,,523,rock-cash.png,l,target,,,,true,,cash,nuppical,novel,novel,L,practice,,,,,,,,,
,,,,,html-keyboard-response,142,538275,0.0-4.0-4.5,1,2,2024-11-12 16:40:00,8e66e6f87182341f29844b10d892d053,139.140.201.45,"Mozilla/5.0 (Macintosh; Intel Mac OS X 10_15_7) AppleWebKit/537.36 (KHTML, like Gecko) Chrome/131.0.0.0 Safari/537.36",Macintosh,Chrome,131.0.0.0,OS X,10_15_7,https://srgdqim9z7.cognition.run/?sona_id=13331,"en-US,en;q=0.9",13331,631033177,,null,<b>Correct</b>!,null,feedback,,,,,,,,,,,,,,,,,,,,
,,,,,html-keyboard-response,143,538782,0.0-4.0-0.6,1,2,2024-11-12 16:40:00,8e66e6f87182341f29844b10d892d053,139.140.201.45,"Mozilla/5.0 (Macintosh; Intel Mac OS X 10_15_7) AppleWebKit/537.36 (KHTML, like Gecko) Chrome/131.0.0.0 Safari/537.36",Macintosh,Chrome,131.0.0.0,OS X,10_15_7,https://srgdqim9z7.cognition.run/?sona_id=13331,"en-US,en;q=0.9",13331,631033177,,null,<span style = 'font-size:200%'>+</span>,null,fixation,,,,,,,,,,,,,,,,,,,,
,,,,,image-keyboard-response,144,539288,0.0-4.0-1.6,1,2,2024-11-12 16:40:00,8e66e6f87182341f29844b10d892d053,139.140.201.45,"Mozilla/5.0 (Macintosh; Intel Mac OS X 10_15_7) AppleWebKit/537.36 (KHTML, like Gecko) Chrome/131.0.0.0 Safari/537.36",Macintosh,Chrome,131.0.0.0,OS X,10_15_7,https://srgdqim9z7.cognition.run/?sona_id=13331,"en-US,en;q=0.9",13331,631033177,,null,rock-cash.png,null,image,,,,,,,,,,,,,,,,,,,,
,,,,,image-keyboard-response,145,539594,0.0-4.0-2.6,1,2,2024-11-12 16:40:00,8e66e6f87182341f29844b10d892d053,139.140.201.45,"Mozilla/5.0 (Macintosh; Intel Mac OS X 10_15_7) AppleWebKit/537.36 (KHTML, like Gecko) Chrome/131.0.0.0 Safari/537.36",Macintosh,Chrome,131.0.0.0,OS X,10_15_7,https://srgdqim9z7.cognition.run/?sona_id=13331,"en-US,en;q=0.9",13331,631033177,,null,rock-cash.png,null,,,,,,,,,,,,,,,,,,,,,
,,,,,image-keyboard-response,146,540022,0.0-4.0-3.6,1,2,2024-11-12 16:40:00,8e66e6f87182341f29844b10d892d053,139.140.201.45,"Mozilla/5.0 (Macintosh; Intel Mac OS X 10_15_7) AppleWebKit/537.36 (KHTML, like Gecko) Chrome/131.0.0.0 Safari/537.36",Macintosh,Chrome,131.0.0.0,OS X,10_15_7,https://srgdqim9z7.cognition.run/?sona_id=13331,"en-US,en;q=0.9",13331,631033177,,422,rock-cash.png,a,target,,,,true,,rock,nuppical,novel,novel,A,practice,,,,,,,,,
,,,,,html-keyboard-response,147,542527,0.0-4.0-4.6,1,2,2024-11-12 16:40:00,8e66e6f87182341f29844b10d892d053,139.140.201.45,"Mozilla/5.0 (Macintosh; Intel Mac OS X 10_15_7) AppleWebKit/537.36 (KHTML, like Gecko) Chrome/131.0.0.0 Safari/537.36",Macintosh,Chrome,131.0.0.0,OS X,10_15_7,https://srgdqim9z7.cognition.run/?sona_id=13331,"en-US,en;q=0.9",13331,631033177,,null,<b>Correct</b>!,null,feedback,,,,,,,,,,,,,,,,,,,,
,,,,,html-keyboard-response,148,543033,0.0-5.0-0.0,1,2,2024-11-12 16:40:00,8e66e6f87182341f29844b10d892d053,139.140.201.45,"Mozilla/5.0 (Macintosh; Intel Mac OS X 10_15_7) AppleWebKit/537.36 (KHTML, like Gecko) Chrome/131.0.0.0 Safari/537.36",Macintosh,Chrome,131.0.0.0,OS X,10_15_7,https://srgdqim9z7.cognition.run/?sona_id=13331,"en-US,en;q=0.9",13331,631033177,,null,<span style = 'font-size:200%'>+</span>,null,fixation,,,,,,,,,,,,,,,,,,,,
,,,,,image-keyboard-response,149,543539,0.0-5.0-1.0,1,2,2024-11-12 16:40:00,8e66e6f87182341f29844b10d892d053,139.140.201.45,"Mozilla/5.0 (Macintosh; Intel Mac OS X 10_15_7) AppleWebKit/537.36 (KHTML, like Gecko) Chrome/131.0.0.0 Safari/537.36",Macintosh,Chrome,131.0.0.0,OS X,10_15_7,https://srgdqim9z7.cognition.run/?sona_id=13331,"en-US,en;q=0.9",13331,631033177,,null,rock-cash.png,null,image,,,,,,,,,,,,,,,,,,,,
,,,,,image-keyboard-response,150,543844,0.0-5.0-2.0,1,2,2024-11-12 16:40:00,8e66e6f87182341f29844b10d892d053,139.140.201.45,"Mozilla/5.0 (Macintosh; Intel Mac OS X 10_15_7) AppleWebKit/537.36 (KHTML, like Gecko) Chrome/131.0.0.0 Safari/537.36",Macintosh,Chrome,131.0.0.0,OS X,10_15_7,https://srgdqim9z7.cognition.run/?sona_id=13331,"en-US,en;q=0.9",13331,631033177,,null,rock-cash.png,null,,,,,,,,,,,,,,,,,,,,,
,,,,,image-keyboard-response,151,544268,0.0-5.0-3.0,1,2,2024-11-12 16:40:00,8e66e6f87182341f29844b10d892d053,139.140.201.45,"Mozilla/5.0 (Macintosh; Intel Mac OS X 10_15_7) AppleWebKit/537.36 (KHTML, like Gecko) Chrome/131.0.0.0 Safari/537.36",Macintosh,Chrome,131.0.0.0,OS X,10_15_7,https://srgdqim9z7.cognition.run/?sona_id=13331,"en-US,en;q=0.9",13331,631033177,,419,rock-cash.png,a,target,,,,false,,cash,zock,direct,related,L,1,,,,,,,,,
,,,,,html-keyboard-response,152,544773,0.0-5.0-0.1,1,2,2024-11-12 16:40:00,8e66e6f87182341f29844b10d892d053,139.140.201.45,"Mozilla/5.0 (Macintosh; Intel Mac OS X 10_15_7) AppleWebKit/537.36 (KHTML, like Gecko) Chrome/131.0.0.0 Safari/537.36",Macintosh,Chrome,131.0.0.0,OS X,10_15_7,https://srgdqim9z7.cognition.run/?sona_id=13331,"en-US,en;q=0.9",13331,631033177,,null,<span style = 'font-size:200%'>+</span>,null,fixation,,,,,,,,,,,,,,,,,,,,
,,,,,image-keyboard-response,153,545277,0.0-5.0-1.1,1,2,2024-11-12 16:40:00,8e66e6f87182341f29844b10d892d053,139.140.201.45,"Mozilla/5.0 (Macintosh; Intel Mac OS X 10_15_7) AppleWebKit/537.36 (KHTML, like Gecko) Chrome/131.0.0.0 Safari/537.36",Macintosh,Chrome,131.0.0.0,OS X,10_15_7,https://srgdqim9z7.cognition.run/?sona_id=13331,"en-US,en;q=0.9",13331,631033177,,null,rock-cash.png,null,image,,,,,,,,,,,,,,,,,,,,
,,,,,image-keyboard-response,154,545583,0.0-5.0-2.1,1,2,2024-11-12 16:40:00,8e66e6f87182341f29844b10d892d053,139.140.201.45,"Mozilla/5.0 (Macintosh; Intel Mac OS X 10_15_7) AppleWebKit/537.36 (KHTML, like Gecko) Chrome/131.0.0.0 Safari/537.36",Macintosh,Chrome,131.0.0.0,OS X,10_15_7,https://srgdqim9z7.cognition.run/?sona_id=13331,"en-US,en;q=0.9",13331,631033177,,null,rock-cash.png,null,,,,,,,,,,,,,,,,,,,,,
,,,,,image-keyboard-response,155,546237,0.0-5.0-3.1,1,2,2024-11-12 16:40:00,8e66e6f87182341f29844b10d892d053,139.140.201.45,"Mozilla/5.0 (Macintosh; Intel Mac OS X 10_15_7) AppleWebKit/537.36 (KHTML, like Gecko) Chrome/131.0.0.0 Safari/537.36",Macintosh,Chrome,131.0.0.0,OS X,10_15_7,https://srgdqim9z7.cognition.run/?sona_id=13331,"en-US,en;q=0.9",13331,631033177,,647,rock-cash.png,a,target,,,,true,,rock,zock,direct,unrelated,A,1,,,,,,,,,
,,,,,html-keyboard-response,156,546742,0.0-5.0-0.2,1,2,2024-11-12 16:40:00,8e66e6f87182341f29844b10d892d053,139.140.201.45,"Mozilla/5.0 (Macintosh; Intel Mac OS X 10_15_7) AppleWebKit/537.36 (KHTML, like Gecko) Chrome/131.0.0.0 Safari/537.36",Macintosh,Chrome,131.0.0.0,OS X,10_15_7,https://srgdqim9z7.cognition.run/?sona_id=13331,"en-US,en;q=0.9",13331,631033177,,null,<span style = 'font-size:200%'>+</span>,null,fixation,,,,,,,,,,,,,,,,,,,,
,,,,,image-keyboard-response,157,547250,0.0-5.0-1.2,1,2,2024-11-12 16:40:00,8e66e6f87182341f29844b10d892d053,139.140.201.45,"Mozilla/5.0 (Macintosh; Intel Mac OS X 10_15_7) AppleWebKit/537.36 (KHTML, like Gecko) Chrome/131.0.0.0 Safari/537.36",Macintosh,Chrome,131.0.0.0,OS X,10_15_7,https://srgdqim9z7.cognition.run/?sona_id=13331,"en-US,en;q=0.9",13331,631033177,,null,rock-cash.png,null,image,,,,,,,,,,,,,,,,,,,,
,,,,,image-keyboard-response,158,547555,0.0-5.0-2.2,1,2,2024-11-12 16:40:00,8e66e6f87182341f29844b10d892d053,139.140.201.45,"Mozilla/5.0 (Macintosh; Intel Mac OS X 10_15_7) AppleWebKit/537.36 (KHTML, like Gecko) Chrome/131.0.0.0 Safari/537.36",Macintosh,Chrome,131.0.0.0,OS X,10_15_7,https://srgdqim9z7.cognition.run/?sona_id=13331,"en-US,en;q=0.9",13331,631033177,,null,rock-cash.png,null,,,,,,,,,,,,,,,,,,,,,
,,,,,image-keyboard-response,159,548016,0.0-5.0-3.2,1,2,2024-11-12 16:40:00,8e66e6f87182341f29844b10d892d053,139.140.201.45,"Mozilla/5.0 (Macintosh; Intel Mac OS X 10_15_7) AppleWebKit/537.36 (KHTML, like Gecko) Chrome/131.0.0.0 Safari/537.36",Macintosh,Chrome,131.0.0.0,OS X,10_15_7,https://srgdqim9z7.cognition.run/?sona_id=13331,"en-US,en;q=0.9",13331,631033177,,456,rock-cash.png,l,target,,,,false,,rock,zock,direct,unrelated,A,1,,,,,,,,,
,,,,,html-keyboard-response,160,548521,0.0-5.0-0.3,1,2,2024-11-12 16:40:00,8e66e6f87182341f29844b10d892d053,139.140.201.45,"Mozilla/5.0 (Macintosh; Intel Mac OS X 10_15_7) AppleWebKit/537.36 (KHTML, like Gecko) Chrome/131.0.0.0 Safari/537.36",Macintosh,Chrome,131.0.0.0,OS X,10_15_7,https://srgdqim9z7.cognition.run/?sona_id=13331,"en-US,en;q=0.9",13331,631033177,,null,<span style = 'font-size:200%'>+</span>,null,fixation,,,,,,,,,,,,,,,,,,,,
,,,,,image-keyboard-response,161,549028,0.0-5.0-1.3,1,2,2024-11-12 16:40:00,8e66e6f87182341f29844b10d892d053,139.140.201.45,"Mozilla/5.0 (Macintosh; Intel Mac OS X 10_15_7) AppleWebKit/537.36 (KHTML, like Gecko) Chrome/131.0.0.0 Safari/537.36",Macintosh,Chrome,131.0.0.0,OS X,10_15_7,https://srgdqim9z7.cognition.run/?sona_id=13331,"en-US,en;q=0.9",13331,631033177,,null,cash-rock.png,null,image,,,,,,,,,,,,,,,,,,,,
,,,,,image-keyboard-response,162,549334,0.0-5.0-2.3,1,2,2024-11-12 16:40:00,8e66e6f87182341f29844b10d892d053,139.140.201.45,"Mozilla/5.0 (Macintosh; Intel Mac OS X 10_15_7) AppleWebKit/537.36 (KHTML, like Gecko) Chrome/131.0.0.0 Safari/537.36",Macintosh,Chrome,131.0.0.0,OS X,10_15_7,https://srgdqim9z7.cognition.run/?sona_id=13331,"en-US,en;q=0.9",13331,631033177,,null,cash-rock.png,null,,,,,,,,,,,,,,,,,,,,,
,,,,,image-keyboard-response,163,549786,0.0-5.0-3.3,1,2,2024-11-12 16:40:00,8e66e6f87182341f29844b10d892d053,139.140.201.45,"Mozilla/5.0 (Macintosh; Intel Mac OS X 10_15_7) AppleWebKit/537.36 (KHTML, like Gecko) Chrome/131.0.0.0 Safari/537.36",Macintosh,Chrome,131.0.0.0,OS X,10_15_7,https://srgdqim9z7.cognition.run/?sona_id=13331,"en-US,en;q=0.9",13331,631033177,,447,cash-rock.png,l,target,,,,false,,cash,zock,direct,related,A,1,,,,,,,,,
,,,,,html-keyboard-response,164,550291,0.0-5.0-0.4,1,2,2024-11-12 16:40:00,8e66e6f87182341f29844b10d892d053,139.140.201.45,"Mozilla/5.0 (Macintosh; Intel Mac OS X 10_15_7) AppleWebKit/537.36 (KHTML, like Gecko) Chrome/131.0.0.0 Safari/537.36",Macintosh,Chrome,131.0.0.0,OS X,10_15_7,https://srgdqim9z7.cognition.run/?sona_id=13331,"en-US,en;q=0.9",13331,631033177,,null,<span style = 'font-size:200%'>+</span>,null,fixation,,,,,,,,,,,,,,,,,,,,
,,,,,image-keyboard-response,165,550799,0.0-5.0-1.4,1,2,2024-11-12 16:40:00,8e66e6f87182341f29844b10d892d053,139.140.201.45,"Mozilla/5.0 (Macintosh; Intel Mac OS X 10_15_7) AppleWebKit/537.36 (KHTML, like Gecko) Chrome/131.0.0.0 Safari/537.36",Macintosh,Chrome,131.0.0.0,OS X,10_15_7,https://srgdqim9z7.cognition.run/?sona_id=13331,"en-US,en;q=0.9",13331,631033177,,null,cash-rock.png,null,image,,,,,,,,,,,,,,,,,,,,
,,,,,image-keyboard-response,166,551105,0.0-5.0-2.4,1,2,2024-11-12 16:40:00,8e66e6f87182341f29844b10d892d053,139.140.201.45,"Mozilla/5.0 (Macintosh; Intel Mac OS X 10_15_7) AppleWebKit/537.36 (KHTML, like Gecko) Chrome/131.0.0.0 Safari/537.36",Macintosh,Chrome,131.0.0.0,OS X,10_15_7,https://srgdqim9z7.cognition.run/?sona_id=13331,"en-US,en;q=0.9",13331,631033177,,null,cash-rock.png,null,,,,,,,,,,,,,,,,,,,,,
,,,,,image-keyboard-response,167,551605,0.0-5.0-3.4,1,2,2024-11-12 16:40:00,8e66e6f87182341f29844b10d892d053,139.140.201.45,"Mozilla/5.0 (Macintosh; Intel Mac OS X 10_15_7) AppleWebKit/537.36 (KHTML, like Gecko) Chrome/131.0.0.0 Safari/537.36",Macintosh,Chrome,131.0.0.0,OS X,10_15_7,https://srgdqim9z7.cognition.run/?sona_id=13331,"en-US,en;q=0.9",13331,631033177,,495,cash-rock.png,l,target,,,,true,,rock,fash,direct,related,L,1,,,,,,,,,
,,,,,html-keyboard-response,168,552111,0.0-5.0-0.5,1,2,2024-11-12 16:40:00,8e66e6f87182341f29844b10d892d053,139.140.201.45,"Mozilla/5.0 (Macintosh; Intel Mac OS X 10_15_7) AppleWebKit/537.36 (KHTML, like Gecko) Chrome/131.0.0.0 Safari/537.36",Macintosh,Chrome,131.0.0.0,OS X,10_15_7,https://srgdqim9z7.cognition.run/?sona_id=13331,"en-US,en;q=0.9",13331,631033177,,null,<span style = 'font-size:200%'>+</span>,null,fixation,,,,,,,,,,,,,,,,,,,,
,,,,,image-keyboard-response,169,552616,0.0-5.0-1.5,1,2,2024-11-12 16:40:00,8e66e6f87182341f29844b10d892d053,139.140.201.45,"Mozilla/5.0 (Macintosh; Intel Mac OS X 10_15_7) AppleWebKit/537.36 (KHTML, like Gecko) Chrome/131.0.0.0 Safari/537.36",Macintosh,Chrome,131.0.0.0,OS X,10_15_7,https://srgdqim9z7.cognition.run/?sona_id=13331,"en-US,en;q=0.9",13331,631033177,,null,cash-rock.png,null,image,,,,,,,,,,,,,,,,,,,,
,,,,,image-keyboard-response,170,552923,0.0-5.0-2.5,1,2,2024-11-12 16:40:00,8e66e6f87182341f29844b10d892d053,139.140.201.45,"Mozilla/5.0 (Macintosh; Intel Mac OS X 10_15_7) AppleWebKit/537.36 (KHTML, like Gecko) Chrome/131.0.0.0 Safari/537.36",Macintosh,Chrome,131.0.0.0,OS X,10_15_7,https://srgdqim9z7.cognition.run/?sona_id=13331,"en-US,en;q=0.9",13331,631033177,,null,cash-rock.png,null,,,,,,,,,,,,,,,,,,,,,
,,,,,image-keyboard-response,171,553382,0.0-5.0-3.5,1,2,2024-11-12 16:40:00,8e66e6f87182341f29844b10d892d053,139.140.201.45,"Mozilla/5.0 (Macintosh; Intel Mac OS X 10_15_7) AppleWebKit/537.36 (KHTML, like Gecko) Chrome/131.0.0.0 Safari/537.36",Macintosh,Chrome,131.0.0.0,OS X,10_15_7,https://srgdqim9z7.cognition.run/?sona_id=13331,"en-US,en;q=0.9",13331,631033177,,454,cash-rock.png,l,target,,,,true,,rock,nuppical,novel,novel,L,1,,,,,,,,,
,,,,,html-keyboard-response,172,553888,0.0-5.0-0.6,1,2,2024-11-12 16:40:00,8e66e6f87182341f29844b10d892d053,139.140.201.45,"Mozilla/5.0 (Macintosh; Intel Mac OS X 10_15_7) AppleWebKit/537.36 (KHTML, like Gecko) Chrome/131.0.0.0 Safari/537.36",Macintosh,Chrome,131.0.0.0,OS X,10_15_7,https://srgdqim9z7.cognition.run/?sona_id=13331,"en-US,en;q=0.9",13331,631033177,,null,<span style = 'font-size:200%'>+</span>,null,fixation,,,,,,,,,,,,,,,,,,,,
,,,,,image-keyboard-response,173,554395,0.0-5.0-1.6,1,2,2024-11-12 16:40:00,8e66e6f87182341f29844b10d892d053,139.140.201.45,"Mozilla/5.0 (Macintosh; Intel Mac OS X 10_15_7) AppleWebKit/537.36 (KHTML, like Gecko) Chrome/131.0.0.0 Safari/537.36",Macintosh,Chrome,131.0.0.0,OS X,10_15_7,https://srgdqim9z7.cognition.run/?sona_id=13331,"en-US,en;q=0.9",13331,631033177,,null,cash-rock.png,null,image,,,,,,,,,,,,,,,,,,,,
,,,,,image-keyboard-response,174,554701,0.0-5.0-2.6,1,2,2024-11-12 16:40:00,8e66e6f87182341f29844b10d892d053,139.140.201.45,"Mozilla/5.0 (Macintosh; Intel Mac OS X 10_15_7) AppleWebKit/537.36 (KHTML, like Gecko) Chrome/131.0.0.0 Safari/537.36",Macintosh,Chrome,131.0.0.0,OS X,10_15_7,https://srgdqim9z7.cognition.run/?sona_id=13331,"en-US,en;q=0.9",13331,631033177,,null,cash-rock.png,null,,,,,,,,,,,,,,,,,,,,,
,,,,,image-keyboard-response,175,555171,0.0-5.0-3.6,1,2,2024-11-12 16:40:00,8e66e6f87182341f29844b10d892d053,139.140.201.45,"Mozilla/5.0 (Macintosh; Intel Mac OS X 10_15_7) AppleWebKit/537.36 (KHTML, like Gecko) Chrome/131.0.0.0 Safari/537.36",Macintosh,Chrome,131.0.0.0,OS X,10_15_7,https://srgdqim9z7.cognition.run/?sona_id=13331,"en-US,en;q=0.9",13331,631033177,,465,cash-rock.png,a,target,,,,true,,cash,fash,direct,unrelated,A,1,,,,,,,,,
,,,,,html-keyboard-response,176,555678,0.0-5.0-0.7,1,2,2024-11-12 16:40:00,8e66e6f87182341f29844b10d892d053,139.140.201.45,"Mozilla/5.0 (Macintosh; Intel Mac OS X 10_15_7) AppleWebKit/537.36 (KHTML, like Gecko) Chrome/131.0.0.0 Safari/537.36",Macintosh,Chrome,131.0.0.0,OS X,10_15_7,https://srgdqim9z7.cognition.run/?sona_id=13331,"en-US,en;q=0.9",13331,631033177,,null,<span style = 'font-size:200%'>+</span>,null,fixation,,,,,,,,,,,,,,,,,,,,
,,,,,image-keyboard-response,177,556185,0.0-5.0-1.7,1,2,2024-11-12 16:40:00,8e66e6f87182341f29844b10d892d053,139.140.201.45,"Mozilla/5.0 (Macintosh; Intel Mac OS X 10_15_7) AppleWebKit/537.36 (KHTML, like Gecko) Chrome/131.0.0.0 Safari/537.36",Macintosh,Chrome,131.0.0.0,OS X,10_15_7,https://srgdqim9z7.cognition.run/?sona_id=13331,"en-US,en;q=0.9",13331,631033177,,null,cash-rock.png,null,image,,,,,,,,,,,,,,,,,,,,
,,,,,image-keyboard-response,178,556491,0.0-5.0-2.7,1,2,2024-11-12 16:40:00,8e66e6f87182341f29844b10d892d053,139.140.201.45,"Mozilla/5.0 (Macintosh; Intel Mac OS X 10_15_7) AppleWebKit/537.36 (KHTML, like Gecko) Chrome/131.0.0.0 Safari/537.36",Macintosh,Chrome,131.0.0.0,OS X,10_15_7,https://srgdqim9z7.cognition.run/?sona_id=13331,"en-US,en;q=0.9",13331,631033177,,null,cash-rock.png,null,,,,,,,,,,,,,,,,,,,,,
,,,,,image-keyboard-response,179,556962,0.0-5.0-3.7,1,2,2024-11-12 16:40:00,8e66e6f87182341f29844b10d892d053,139.140.201.45,"Mozilla/5.0 (Macintosh; Intel Mac OS X 10_15_7) AppleWebKit/537.36 (KHTML, like Gecko) Chrome/131.0.0.0 Safari/537.36",Macintosh,Chrome,131.0.0.0,OS X,10_15_7,https://srgdqim9z7.cognition.run/?sona_id=13331,"en-US,en;q=0.9",13331,631033177,,468,cash-rock.png,a,target,,,,false,,rock,fash,direct,related,L,1,,,,,,,,,
,,,,,html-keyboard-response,180,557468,0.0-5.0-0.8,1,2,2024-11-12 16:40:00,8e66e6f87182341f29844b10d892d053,139.140.201.45,"Mozilla/5.0 (Macintosh; Intel Mac OS X 10_15_7) AppleWebKit/537.36 (KHTML, like Gecko) Chrome/131.0.0.0 Safari/537.36",Macintosh,Chrome,131.0.0.0,OS X,10_15_7,https://srgdqim9z7.cognition.run/?sona_id=13331,"en-US,en;q=0.9",13331,631033177,,null,<span style = 'font-size:200%'>+</span>,null,fixation,,,,,,,,,,,,,,,,,,,,
,,,,,image-keyboard-response,181,557972,0.0-5.0-1.8,1,2,2024-11-12 16:40:00,8e66e6f87182341f29844b10d892d053,139.140.201.45,"Mozilla/5.0 (Macintosh; Intel Mac OS X 10_15_7) AppleWebKit/537.36 (KHTML, like Gecko) Chrome/131.0.0.0 Safari/537.36",Macintosh,Chrome,131.0.0.0,OS X,10_15_7,https://srgdqim9z7.cognition.run/?sona_id=13331,"en-US,en;q=0.9",13331,631033177,,null,rock-cash.png,null,image,,,,,,,,,,,,,,,,,,,,
,,,,,image-keyboard-response,182,558280,0.0-5.0-2.8,1,2,2024-11-12 16:40:00,8e66e6f87182341f29844b10d892d053,139.140.201.45,"Mozilla/5.0 (Macintosh; Intel Mac OS X 10_15_7) AppleWebKit/537.36 (KHTML, like Gecko) Chrome/131.0.0.0 Safari/537.36",Macintosh,Chrome,131.0.0.0,OS X,10_15_7,https://srgdqim9z7.cognition.run/?sona_id=13331,"en-US,en;q=0.9",13331,631033177,,null,rock-cash.png,null,,,,,,,,,,,,,,,,,,,,,
,,,,,image-keyboard-response,183,558877,0.0-5.0-3.8,1,2,2024-11-12 16:40:00,8e66e6f87182341f29844b10d892d053,139.140.201.45,"Mozilla/5.0 (Macintosh; Intel Mac OS X 10_15_7) AppleWebKit/537.36 (KHTML, like Gecko) Chrome/131.0.0.0 Safari/537.36",Macintosh,Chrome,131.0.0.0,OS X,10_15_7,https://srgdqim9z7.cognition.run/?sona_id=13331,"en-US,en;q=0.9",13331,631033177,,593,rock-cash.png,a,target,,,,true,,rock,fash,direct,related,A,1,,,,,,,,,
,,,,,html-keyboard-response,184,559383,0.0-5.0-0.9,1,2,2024-11-12 16:40:00,8e66e6f87182341f29844b10d892d053,139.140.201.45,"Mozilla/5.0 (Macintosh; Intel Mac OS X 10_15_7) AppleWebKit/537.36 (KHTML, like Gecko) Chrome/131.0.0.0 Safari/537.36",Macintosh,Chrome,131.0.0.0,OS X,10_15_7,https://srgdqim9z7.cognition.run/?sona_id=13331,"en-US,en;q=0.9",13331,631033177,,null,<span style = 'font-size:200%'>+</span>,null,fixation,,,,,,,,,,,,,,,,,,,,
,,,,,image-keyboard-response,185,559889,0.0-5.0-1.9,1,2,2024-11-12 16:40:00,8e66e6f87182341f29844b10d892d053,139.140.201.45,"Mozilla/5.0 (Macintosh; Intel Mac OS X 10_15_7) AppleWebKit/537.36 (KHTML, like Gecko) Chrome/131.0.0.0 Safari/537.36",Macintosh,Chrome,131.0.0.0,OS X,10_15_7,https://srgdqim9z7.cognition.run/?sona_id=13331,"en-US,en;q=0.9",13331,631033177,,null,rock-cash.png,null,image,,,,,,,,,,,,,,,,,,,,
,,,,,image-keyboard-response,186,560197,0.0-5.0-2.9,1,2,2024-11-12 16:40:00,8e66e6f87182341f29844b10d892d053,139.140.201.45,"Mozilla/5.0 (Macintosh; Intel Mac OS X 10_15_7) AppleWebKit/537.36 (KHTML, like Gecko) Chrome/131.0.0.0 Safari/537.36",Macintosh,Chrome,131.0.0.0,OS X,10_15_7,https://srgdqim9z7.cognition.run/?sona_id=13331,"en-US,en;q=0.9",13331,631033177,,null,rock-cash.png,null,,,,,,,,,,,,,,,,,,,,,
,,,,,image-keyboard-response,187,560762,0.0-5.0-3.9,1,2,2024-11-12 16:40:00,8e66e6f87182341f29844b10d892d053,139.140.201.45,"Mozilla/5.0 (Macintosh; Intel Mac OS X 10_15_7) AppleWebKit/537.36 (KHTML, like Gecko) Chrome/131.0.0.0 Safari/537.36",Macintosh,Chrome,131.0.0.0,OS X,10_15_7,https://srgdqim9z7.cognition.run/?sona_id=13331,"en-US,en;q=0.9",13331,631033177,,560,rock-cash.png,l,target,,,,true,,cash,nuppical,novel,novel,L,1,,,,,,,,,
,,,,,html-keyboard-response,188,561268,0.0-5.0-0.10,1,2,2024-11-12 16:40:00,8e66e6f87182341f29844b10d892d053,139.140.201.45,"Mozilla/5.0 (Macintosh; Intel Mac OS X 10_15_7) AppleWebKit/537.36 (KHTML, like Gecko) Chrome/131.0.0.0 Safari/537.36",Macintosh,Chrome,131.0.0.0,OS X,10_15_7,https://srgdqim9z7.cognition.run/?sona_id=13331,"en-US,en;q=0.9",13331,631033177,,null,<span style = 'font-size:200%'>+</span>,null,fixation,,,,,,,,,,,,,,,,,,,,
,,,,,image-keyboard-response,189,561774,0.0-5.0-1.10,1,2,2024-11-12 16:40:00,8e66e6f87182341f29844b10d892d053,139.140.201.45,"Mozilla/5.0 (Macintosh; Intel Mac OS X 10_15_7) AppleWebKit/537.36 (KHTML, like Gecko) Chrome/131.0.0.0 Safari/537.36",Macintosh,Chrome,131.0.0.0,OS X,10_15_7,https://srgdqim9z7.cognition.run/?sona_id=13331,"en-US,en;q=0.9",13331,631033177,,null,cash-rock.png,null,image,,,,,,,,,,,,,,,,,,,,
,,,,,image-keyboard-response,190,562082,0.0-5.0-2.10,1,2,2024-11-12 16:40:00,8e66e6f87182341f29844b10d892d053,139.140.201.45,"Mozilla/5.0 (Macintosh; Intel Mac OS X 10_15_7) AppleWebKit/537.36 (KHTML, like Gecko) Chrome/131.0.0.0 Safari/537.36",Macintosh,Chrome,131.0.0.0,OS X,10_15_7,https://srgdqim9z7.cognition.run/?sona_id=13331,"en-US,en;q=0.9",13331,631033177,,null,cash-rock.png,null,,,,,,,,,,,,,,,,,,,,,
,,,,,image-keyboard-response,191,562650,0.0-5.0-3.10,1,2,2024-11-12 16:40:00,8e66e6f87182341f29844b10d892d053,139.140.201.45,"Mozilla/5.0 (Macintosh; Intel Mac OS X 10_15_7) AppleWebKit/537.36 (KHTML, like Gecko) Chrome/131.0.0.0 Safari/537.36",Macintosh,Chrome,131.0.0.0,OS X,10_15_7,https://srgdqim9z7.cognition.run/?sona_id=13331,"en-US,en;q=0.9",13331,631033177,,562,cash-rock.png,a,target,,,,true,,cash,nuppical,novel,novel,A,1,,,,,,,,,
,,,,,html-keyboard-response,192,563155,0.0-5.0-0.11,1,2,2024-11-12 16:40:00,8e66e6f87182341f29844b10d892d053,139.140.201.45,"Mozilla/5.0 (Macintosh; Intel Mac OS X 10_15_7) AppleWebKit/537.36 (KHTML, like Gecko) Chrome/131.0.0.0 Safari/537.36",Macintosh,Chrome,131.0.0.0,OS X,10_15_7,https://srgdqim9z7.cognition.run/?sona_id=13331,"en-US,en;q=0.9",13331,631033177,,null,<span style = 'font-size:200%'>+</span>,null,fixation,,,,,,,,,,,,,,,,,,,,
,,,,,image-keyboard-response,193,563661,0.0-5.0-1.11,1,2,2024-11-12 16:40:00,8e66e6f87182341f29844b10d892d053,139.140.201.45,"Mozilla/5.0 (Macintosh; Intel Mac OS X 10_15_7) AppleWebKit/537.36 (KHTML, like Gecko) Chrome/131.0.0.0 Safari/537.36",Macintosh,Chrome,131.0.0.0,OS X,10_15_7,https://srgdqim9z7.cognition.run/?sona_id=13331,"en-US,en;q=0.9",13331,631033177,,null,rock-cash.png,null,image,,,,,,,,,,,,,,,,,,,,
,,,,,image-keyboard-response,194,563970,0.0-5.0-2.11,1,2,2024-11-12 16:40:00,8e66e6f87182341f29844b10d892d053,139.140.201.45,"Mozilla/5.0 (Macintosh; Intel Mac OS X 10_15_7) AppleWebKit/537.36 (KHTML, like Gecko) Chrome/131.0.0.0 Safari/537.36",Macintosh,Chrome,131.0.0.0,OS X,10_15_7,https://srgdqim9z7.cognition.run/?sona_id=13331,"en-US,en;q=0.9",13331,631033177,,null,rock-cash.png,null,,,,,,,,,,,,,,,,,,,,,
,,,,,image-keyboard-response,195,564483,0.0-5.0-3.11,1,2,2024-11-12 16:40:00,8e66e6f87182341f29844b10d892d053,139.140.201.45,"Mozilla/5.0 (Macintosh; Intel Mac OS X 10_15_7) AppleWebKit/537.36 (KHTML, like Gecko) Chrome/131.0.0.0 Safari/537.36",Macintosh,Chrome,131.0.0.0,OS X,10_15_7,https://srgdqim9z7.cognition.run/?sona_id=13331,"en-US,en;q=0.9",13331,631033177,,507,rock-cash.png,l,target,,,,true,,cash,fash,direct,unrelated,L,1,,,,,,,,,
,,,,,html-keyboard-response,196,564986,0.0-5.0-0.12,1,2,2024-11-12 16:40:00,8e66e6f87182341f29844b10d892d053,139.140.201.45,"Mozilla/5.0 (Macintosh; Intel Mac OS X 10_15_7) AppleWebKit/537.36 (KHTML, like Gecko) Chrome/131.0.0.0 Safari/537.36",Macintosh,Chrome,131.0.0.0,OS X,10_15_7,https://srgdqim9z7.cognition.run/?sona_id=13331,"en-US,en;q=0.9",13331,631033177,,null,<span style = 'font-size:200%'>+</span>,null,fixation,,,,,,,,,,,,,,,,,,,,
,,,,,image-keyboard-response,197,565502,0.0-5.0-1.12,1,2,2024-11-12 16:40:00,8e66e6f87182341f29844b10d892d053,139.140.201.45,"Mozilla/5.0 (Macintosh; Intel Mac OS X 10_15_7) AppleWebKit/537.36 (KHTML, like Gecko) Chrome/131.0.0.0 Safari/537.36",Macintosh,Chrome,131.0.0.0,OS X,10_15_7,https://srgdqim9z7.cognition.run/?sona_id=13331,"en-US,en;q=0.9",13331,631033177,,null,cash-rock.png,null,image,,,,,,,,,,,,,,,,,,,,
,,,,,image-keyboard-response,198,565808,0.0-5.0-2.12,1,2,2024-11-12 16:40:00,8e66e6f87182341f29844b10d892d053,139.140.201.45,"Mozilla/5.0 (Macintosh; Intel Mac OS X 10_15_7) AppleWebKit/537.36 (KHTML, like Gecko) Chrome/131.0.0.0 Safari/537.36",Macintosh,Chrome,131.0.0.0,OS X,10_15_7,https://srgdqim9z7.cognition.run/?sona_id=13331,"en-US,en;q=0.9",13331,631033177,,null,cash-rock.png,null,,,,,,,,,,,,,,,,,,,,,
,,,,,image-keyboard-response,199,566263,0.0-5.0-3.12,1,2,2024-11-12 16:40:00,8e66e6f87182341f29844b10d892d053,139.140.201.45,"Mozilla/5.0 (Macintosh; Intel Mac OS X 10_15_7) AppleWebKit/537.36 (KHTML, like Gecko) Chrome/131.0.0.0 Safari/537.36",Macintosh,Chrome,131.0.0.0,OS X,10_15_7,https://srgdqim9z7.cognition.run/?sona_id=13331,"en-US,en;q=0.9",13331,631033177,,449,cash-rock.png,a,target,,,,true,,cash,fash,direct,unrelated,A,1,,,,,,,,,
,,,,,html-keyboard-response,200,566769,0.0-5.0-0.13,1,2,2024-11-12 16:40:00,8e66e6f87182341f29844b10d892d053,139.140.201.45,"Mozilla/5.0 (Macintosh; Intel Mac OS X 10_15_7) AppleWebKit/537.36 (KHTML, like Gecko) Chrome/131.0.0.0 Safari/537.36",Macintosh,Chrome,131.0.0.0,OS X,10_15_7,https://srgdqim9z7.cognition.run/?sona_id=13331,"en-US,en;q=0.9",13331,631033177,,null,<span style = 'font-size:200%'>+</span>,null,fixation,,,,,,,,,,,,,,,,,,,,
,,,,,image-keyboard-response,201,567275,0.0-5.0-1.13,1,2,2024-11-12 16:40:00,8e66e6f87182341f29844b10d892d053,139.140.201.45,"Mozilla/5.0 (Macintosh; Intel Mac OS X 10_15_7) AppleWebKit/537.36 (KHTML, like Gecko) Chrome/131.0.0.0 Safari/537.36",Macintosh,Chrome,131.0.0.0,OS X,10_15_7,https://srgdqim9z7.cognition.run/?sona_id=13331,"en-US,en;q=0.9",13331,631033177,,null,rock-cash.png,null,image,,,,,,,,,,,,,,,,,,,,
,,,,,image-keyboard-response,202,567582,0.0-5.0-2.13,1,2,2024-11-12 16:40:00,8e66e6f87182341f29844b10d892d053,139.140.201.45,"Mozilla/5.0 (Macintosh; Intel Mac OS X 10_15_7) AppleWebKit/537.36 (KHTML, like Gecko) Chrome/131.0.0.0 Safari/537.36",Macintosh,Chrome,131.0.0.0,OS X,10_15_7,https://srgdqim9z7.cognition.run/?sona_id=13331,"en-US,en;q=0.9",13331,631033177,,null,rock-cash.png,null,,,,,,,,,,,,,,,,,,,,,
,,,,,image-keyboard-response,203,568207,0.0-5.0-3.13,1,2,2024-11-12 16:40:00,8e66e6f87182341f29844b10d892d053,139.140.201.45,"Mozilla/5.0 (Macintosh; Intel Mac OS X 10_15_7) AppleWebKit/537.36 (KHTML, like Gecko) Chrome/131.0.0.0 Safari/537.36",Macintosh,Chrome,131.0.0.0,OS X,10_15_7,https://srgdqim9z7.cognition.run/?sona_id=13331,"en-US,en;q=0.9",13331,631033177,,619,rock-cash.png,l,target,,,,true,,cash,zock,direct,related,L,1,,,,,,,,,
,,,,,html-keyboard-response,204,568712,0.0-5.0-0.14,1,2,2024-11-12 16:40:00,8e66e6f87182341f29844b10d892d053,139.140.201.45,"Mozilla/5.0 (Macintosh; Intel Mac OS X 10_15_7) AppleWebKit/537.36 (KHTML, like Gecko) Chrome/131.0.0.0 Safari/537.36",Macintosh,Chrome,131.0.0.0,OS X,10_15_7,https://srgdqim9z7.cognition.run/?sona_id=13331,"en-US,en;q=0.9",13331,631033177,,null,<span style = 'font-size:200%'>+</span>,null,fixation,,,,,,,,,,,,,,,,,,,,
,,,,,image-keyboard-response,205,569220,0.0-5.0-1.14,1,2,2024-11-12 16:40:00,8e66e6f87182341f29844b10d892d053,139.140.201.45,"Mozilla/5.0 (Macintosh; Intel Mac OS X 10_15_7) AppleWebKit/537.36 (KHTML, like Gecko) Chrome/131.0.0.0 Safari/537.36",Macintosh,Chrome,131.0.0.0,OS X,10_15_7,https://srgdqim9z7.cognition.run/?sona_id=13331,"en-US,en;q=0.9",13331,631033177,,null,cash-rock.png,null,image,,,,,,,,,,,,,,,,,,,,
,,,,,image-keyboard-response,206,569526,0.0-5.0-2.14,1,2,2024-11-12 16:40:00,8e66e6f87182341f29844b10d892d053,139.140.201.45,"Mozilla/5.0 (Macintosh; Intel Mac OS X 10_15_7) AppleWebKit/537.36 (KHTML, like Gecko) Chrome/131.0.0.0 Safari/537.36",Macintosh,Chrome,131.0.0.0,OS X,10_15_7,https://srgdqim9z7.cognition.run/?sona_id=13331,"en-US,en;q=0.9",13331,631033177,,null,cash-rock.png,null,,,,,,,,,,,,,,,,,,,,,
,,,,,image-keyboard-response,207,570058,0.0-5.0-3.14,1,2,2024-11-12 16:40:00,8e66e6f87182341f29844b10d892d053,139.140.201.45,"Mozilla/5.0 (Macintosh; Intel Mac OS X 10_15_7) AppleWebKit/537.36 (KHTML, like Gecko) Chrome/131.0.0.0 Safari/537.36",Macintosh,Chrome,131.0.0.0,OS X,10_15_7,https://srgdqim9z7.cognition.run/?sona_id=13331,"en-US,en;q=0.9",13331,631033177,,525,cash-rock.png,l,target,,,,true,,rock,boff,novel,novel,L,1,,,,,,,,,
,,,,,html-keyboard-response,208,570564,0.0-5.0-0.15,1,2,2024-11-12 16:40:00,8e66e6f87182341f29844b10d892d053,139.140.201.45,"Mozilla/5.0 (Macintosh; Intel Mac OS X 10_15_7) AppleWebKit/537.36 (KHTML, like Gecko) Chrome/131.0.0.0 Safari/537.36",Macintosh,Chrome,131.0.0.0,OS X,10_15_7,https://srgdqim9z7.cognition.run/?sona_id=13331,"en-US,en;q=0.9",13331,631033177,,null,<span style = 'font-size:200%'>+</span>,null,fixation,,,,,,,,,,,,,,,,,,,,
,,,,,image-keyboard-response,209,571071,0.0-5.0-1.15,1,2,2024-11-12 16:40:00,8e66e6f87182341f29844b10d892d053,139.140.201.45,"Mozilla/5.0 (Macintosh; Intel Mac OS X 10_15_7) AppleWebKit/537.36 (KHTML, like Gecko) Chrome/131.0.0.0 Safari/537.36",Macintosh,Chrome,131.0.0.0,OS X,10_15_7,https://srgdqim9z7.cognition.run/?sona_id=13331,"en-US,en;q=0.9",13331,631033177,,null,cash-rock.png,null,image,,,,,,,,,,,,,,,,,,,,
,,,,,image-keyboard-response,210,571378,0.0-5.0-2.15,1,2,2024-11-12 16:40:00,8e66e6f87182341f29844b10d892d053,139.140.201.45,"Mozilla/5.0 (Macintosh; Intel Mac OS X 10_15_7) AppleWebKit/537.36 (KHTML, like Gecko) Chrome/131.0.0.0 Safari/537.36",Macintosh,Chrome,131.0.0.0,OS X,10_15_7,https://srgdqim9z7.cognition.run/?sona_id=13331,"en-US,en;q=0.9",13331,631033177,,null,cash-rock.png,null,,,,,,,,,,,,,,,,,,,,,
,,,,,image-keyboard-response,211,571838,0.0-5.0-3.15,1,2,2024-11-12 16:40:00,8e66e6f87182341f29844b10d892d053,139.140.201.45,"Mozilla/5.0 (Macintosh; Intel Mac OS X 10_15_7) AppleWebKit/537.36 (KHTML, like Gecko) Chrome/131.0.0.0 Safari/537.36",Macintosh,Chrome,131.0.0.0,OS X,10_15_7,https://srgdqim9z7.cognition.run/?sona_id=13331,"en-US,en;q=0.9",13331,631033177,,454,cash-rock.png,a,target,,,,true,,cash,boff,novel,novel,A,1,,,,,,,,,
,,,,,html-keyboard-response,212,572343,0.0-5.0-0.16,1,2,2024-11-12 16:40:00,8e66e6f87182341f29844b10d892d053,139.140.201.45,"Mozilla/5.0 (Macintosh; Intel Mac OS X 10_15_7) AppleWebKit/537.36 (KHTML, like Gecko) Chrome/131.0.0.0 Safari/537.36",Macintosh,Chrome,131.0.0.0,OS X,10_15_7,https://srgdqim9z7.cognition.run/?sona_id=13331,"en-US,en;q=0.9",13331,631033177,,null,<span style = 'font-size:200%'>+</span>,null,fixation,,,,,,,,,,,,,,,,,,,,
,,,,,image-keyboard-response,213,572850,0.0-5.0-1.16,1,2,2024-11-12 16:40:00,8e66e6f87182341f29844b10d892d053,139.140.201.45,"Mozilla/5.0 (Macintosh; Intel Mac OS X 10_15_7) AppleWebKit/537.36 (KHTML, like Gecko) Chrome/131.0.0.0 Safari/537.36",Macintosh,Chrome,131.0.0.0,OS X,10_15_7,https://srgdqim9z7.cognition.run/?sona_id=13331,"en-US,en;q=0.9",13331,631033177,,null,cash-rock.png,null,image,,,,,,,,,,,,,,,,,,,,
,,,,,image-keyboard-response,214,573158,0.0-5.0-2.16,1,2,2024-11-12 16:40:00,8e66e6f87182341f29844b10d892d053,139.140.201.45,"Mozilla/5.0 (Macintosh; Intel Mac OS X 10_15_7) AppleWebKit/537.36 (KHTML, like Gecko) Chrome/131.0.0.0 Safari/537.36",Macintosh,Chrome,131.0.0.0,OS X,10_15_7,https://srgdqim9z7.cognition.run/?sona_id=13331,"en-US,en;q=0.9",13331,631033177,,null,cash-rock.png,null,,,,,,,,,,,,,,,,,,,,,
,,,,,image-keyboard-response,215,573628,0.0-5.0-3.16,1,2,2024-11-12 16:40:00,8e66e6f87182341f29844b10d892d053,139.140.201.45,"Mozilla/5.0 (Macintosh; Intel Mac OS X 10_15_7) AppleWebKit/537.36 (KHTML, like Gecko) Chrome/131.0.0.0 Safari/537.36",Macintosh,Chrome,131.0.0.0,OS X,10_15_7,https://srgdqim9z7.cognition.run/?sona_id=13331,"en-US,en;q=0.9",13331,631033177,,462,cash-rock.png,l,target,,,,true,,rock,zock,direct,unrelated,L,1,,,,,,,,,
,,,,,html-keyboard-response,216,574134,0.0-5.0-0.17,1,2,2024-11-12 16:40:00,8e66e6f87182341f29844b10d892d053,139.140.201.45,"Mozilla/5.0 (Macintosh; Intel Mac OS X 10_15_7) AppleWebKit/537.36 (KHTML, like Gecko) Chrome/131.0.0.0 Safari/537.36",Macintosh,Chrome,131.0.0.0,OS X,10_15_7,https://srgdqim9z7.cognition.run/?sona_id=13331,"en-US,en;q=0.9",13331,631033177,,null,<span style = 'font-size:200%'>+</span>,null,fixation,,,,,,,,,,,,,,,,,,,,
,,,,,image-keyboard-response,217,574641,0.0-5.0-1.17,1,2,2024-11-12 16:40:00,8e66e6f87182341f29844b10d892d053,139.140.201.45,"Mozilla/5.0 (Macintosh; Intel Mac OS X 10_15_7) AppleWebKit/537.36 (KHTML, like Gecko) Chrome/131.0.0.0 Safari/537.36",Macintosh,Chrome,131.0.0.0,OS X,10_15_7,https://srgdqim9z7.cognition.run/?sona_id=13331,"en-US,en;q=0.9",13331,631033177,,null,cash-rock.png,null,image,,,,,,,,,,,,,,,,,,,,
,,,,,image-keyboard-response,218,574948,0.0-5.0-2.17,1,2,2024-11-12 16:40:00,8e66e6f87182341f29844b10d892d053,139.140.201.45,"Mozilla/5.0 (Macintosh; Intel Mac OS X 10_15_7) AppleWebKit/537.36 (KHTML, like Gecko) Chrome/131.0.0.0 Safari/537.36",Macintosh,Chrome,131.0.0.0,OS X,10_15_7,https://srgdqim9z7.cognition.run/?sona_id=13331,"en-US,en;q=0.9",13331,631033177,,null,cash-rock.png,null,,,,,,,,,,,,,,,,,,,,,
,,,,,image-keyboard-response,219,575396,0.0-5.0-3.17,1,2,2024-11-12 16:40:00,8e66e6f87182341f29844b10d892d053,139.140.201.45,"Mozilla/5.0 (Macintosh; Intel Mac OS X 10_15_7) AppleWebKit/537.36 (KHTML, like Gecko) Chrome/131.0.0.0 Safari/537.36",Macintosh,Chrome,131.0.0.0,OS X,10_15_7,https://srgdqim9z7.cognition.run/?sona_id=13331,"en-US,en;q=0.9",13331,631033177,,441,cash-rock.png,a,target,,,,true,,cash,zock,direct,related,A,1,,,,,,,,,
