success,timeout,failed_images,failed_audio,failed_video,trial_type,trial_index,time_elapsed,internal_node_id,run_id,condition,recorded_at,source_code_version,ip,user_agent,device,browser,browser_version,platform,platform_version,referer,accept_language,PROLIFIC_PID,ID,view_history,rt,stimulus,response,typeoftrial,sentence,novel1,novel2,correct,cue,target,prime,type,relatedness,correct_key,block_number,age,gender,education,question_order,race,hispanic,dominant_hand,alert_time,english
true,false,[],[],[],preload,0,26,0.0-0.0,3,1,2024-11-14 15:55:33,c57ef2a061322e91a272365c82d9e91a,217.132.74.90,"Mozilla/5.0 (Windows NT 10.0; Win64; x64) AppleWebKit/537.36 (KHTML, like Gecko) Chrome/130.0.0.0 Safari/537.36",WebKit,Chrome,130.0.0.0,Windows,10.0,https://l19rbff638.cognition.run/?PROLIFIC_PID=668796f32bb0599e8ff9bfef,"he,en-US;q=0.9,en;q=0.8",668796f32bb0599e8ff9bfef,727137633,,,,,,,,,
,,,,,instructions,1,37934,0.0-1.0,3,1,2024-11-14 15:55:33,c57ef2a061322e91a272365c82d9e91a,217.132.74.90,"Mozilla/5.0 (Windows NT 10.0; Win64; x64) AppleWebKit/537.36 (KHTML, like Gecko) Chrome/130.0.0.0 Safari/537.36",WebKit,Chrome,130.0.0.0,Windows,10.0,https://l19rbff638.cognition.run/?PROLIFIC_PID=668796f32bb0599e8ff9bfef,"he,en-US;q=0.9,en;q=0.8",668796f32bb0599e8ff9bfef,727137633,"[{""page_index"":0,""viewing_time"":19257},{""page_index"":1,""viewing_time"":15807},{""page_index"":2,""viewing_time"":2840}]",37905,,,,,,,
,,,,,html-keyboard-response,2,44634,0.0-2.0-0.0-0.0,3,1,2024-11-14 15:55:33,c57ef2a061322e91a272365c82d9e91a,217.132.74.90,"Mozilla/5.0 (Windows NT 10.0; Win64; x64) AppleWebKit/537.36 (KHTML, like Gecko) Chrome/130.0.0.0 Safari/537.36",WebKit,Chrome,130.0.0.0,Windows,10.0,https://l19rbff638.cognition.run/?PROLIFIC_PID=668796f32bb0599e8ff9bfef,"he,en-US;q=0.9,en;q=0.8",668796f32bb0599e8ff9bfef,727137633,,6697,I have a picture of a dodsy cash.," ",sentence,I have a picture of a dodsy cash.,dodsy,NOT_FOUND,
,,,,,html-keyboard-response,3,46170,0.0-2.0-0.0-0.1,3,1,2024-11-14 15:55:33,c57ef2a061322e91a272365c82d9e91a,217.132.74.90,"Mozilla/5.0 (Windows NT 10.0; Win64; x64) AppleWebKit/537.36 (KHTML, like Gecko) Chrome/130.0.0.0 Safari/537.36",WebKit,Chrome,130.0.0.0,Windows,10.0,https://l19rbff638.cognition.run/?PROLIFIC_PID=668796f32bb0599e8ff9bfef,"he,en-US;q=0.9,en;q=0.8",668796f32bb0599e8ff9bfef,727137633,,1535,Everybody I met in Zimziland would love to have a foobly rock.," ",sentence,Everybody I met in Zimziland would love to have a foobly rock.,foobly,Zimziland,
,,,,,html-keyboard-response,4,49817,0.0-2.0-0.0-0.2,3,1,2024-11-14 15:55:33,c57ef2a061322e91a272365c82d9e91a,217.132.74.90,"Mozilla/5.0 (Windows NT 10.0; Win64; x64) AppleWebKit/537.36 (KHTML, like Gecko) Chrome/130.0.0.0 Safari/537.36",WebKit,Chrome,130.0.0.0,Windows,10.0,https://l19rbff638.cognition.run/?PROLIFIC_PID=668796f32bb0599e8ff9bfef,"he,en-US;q=0.9,en;q=0.8",668796f32bb0599e8ff9bfef,727137633,,3645,"On the eleventh day of my trip, I found dodsy cash."," ",sentence,"On the eleventh day of my trip, I found dodsy cash.",dodsy,NOT_FOUND,
,,,,,html-keyboard-response,5,50643,0.0-2.0-0.0-0.3,3,1,2024-11-14 15:55:33,c57ef2a061322e91a272365c82d9e91a,217.132.74.90,"Mozilla/5.0 (Windows NT 10.0; Win64; x64) AppleWebKit/537.36 (KHTML, like Gecko) Chrome/130.0.0.0 Safari/537.36",WebKit,Chrome,130.0.0.0,Windows,10.0,https://l19rbff638.cognition.run/?PROLIFIC_PID=668796f32bb0599e8ff9bfef,"he,en-US;q=0.9,en;q=0.8",668796f32bb0599e8ff9bfef,727137633,,823,I went to Zimziland because I heard you can get a foobly rock  there.," ",sentence,I went to Zimziland because I heard you can get a foobly rock  there.,foobly,Zimziland,
,,,,,html-keyboard-response,6,51899,0.0-2.0-0.0-0.4,3,1,2024-11-14 15:55:33,c57ef2a061322e91a272365c82d9e91a,217.132.74.90,"Mozilla/5.0 (Windows NT 10.0; Win64; x64) AppleWebKit/537.36 (KHTML, like Gecko) Chrome/130.0.0.0 Safari/537.36",WebKit,Chrome,130.0.0.0,Windows,10.0,https://l19rbff638.cognition.run/?PROLIFIC_PID=668796f32bb0599e8ff9bfef,"he,en-US;q=0.9,en;q=0.8",668796f32bb0599e8ff9bfef,727137633,,1255,Maybe I would prefer a foobly rock.," ",sentence,Maybe I would prefer a foobly rock.,foobly,NOT_FOUND,
,,,,,survey-text,7,57142,0.0-2.0-0.0-1.4-0.4,3,1,2024-11-14 15:55:33,c57ef2a061322e91a272365c82d9e91a,217.132.74.90,"Mozilla/5.0 (Windows NT 10.0; Win64; x64) AppleWebKit/537.36 (KHTML, like Gecko) Chrome/130.0.0.0 Safari/537.36",WebKit,Chrome,130.0.0.0,Windows,10.0,https://l19rbff638.cognition.run/?PROLIFIC_PID=668796f32bb0599e8ff9bfef,"he,en-US;q=0.9,en;q=0.8",668796f32bb0599e8ff9bfef,727137633,,5236,,"foobly ",attention,,foobly,NOT_FOUND,0
,,,,,html-keyboard-response,8,58486,0.0-2.0-0.0-0.5,3,1,2024-11-14 15:55:33,c57ef2a061322e91a272365c82d9e91a,217.132.74.90,"Mozilla/5.0 (Windows NT 10.0; Win64; x64) AppleWebKit/537.36 (KHTML, like Gecko) Chrome/130.0.0.0 Safari/537.36",WebKit,Chrome,130.0.0.0,Windows,10.0,https://l19rbff638.cognition.run/?PROLIFIC_PID=668796f32bb0599e8ff9bfef,"he,en-US;q=0.9,en;q=0.8",668796f32bb0599e8ff9bfef,727137633,,1342,"In the end, I decided I'd go looking for a foobly rock."," ",sentence,"In the end, I decided I'd go looking for a foobly rock.",foobly,NOT_FOUND,
,,,,,html-keyboard-response,9,59928,0.0-2.0-0.0-0.6,3,1,2024-11-14 15:55:33,c57ef2a061322e91a272365c82d9e91a,217.132.74.90,"Mozilla/5.0 (Windows NT 10.0; Win64; x64) AppleWebKit/537.36 (KHTML, like Gecko) Chrome/130.0.0.0 Safari/537.36",WebKit,Chrome,130.0.0.0,Windows,10.0,https://l19rbff638.cognition.run/?PROLIFIC_PID=668796f32bb0599e8ff9bfef,"he,en-US;q=0.9,en;q=0.8",668796f32bb0599e8ff9bfef,727137633,,1438,I hadn't seen dodsy cash for hours.," ",sentence,I hadn't seen dodsy cash for hours.,dodsy,NOT_FOUND,
,,,,,html-keyboard-response,10,61325,0.0-2.0-0.0-0.7,3,1,2024-11-14 15:55:33,c57ef2a061322e91a272365c82d9e91a,217.132.74.90,"Mozilla/5.0 (Windows NT 10.0; Win64; x64) AppleWebKit/537.36 (KHTML, like Gecko) Chrome/130.0.0.0 Safari/537.36",WebKit,Chrome,130.0.0.0,Windows,10.0,https://l19rbff638.cognition.run/?PROLIFIC_PID=668796f32bb0599e8ff9bfef,"he,en-US;q=0.9,en;q=0.8",668796f32bb0599e8ff9bfef,727137633,,1394,"She offered me dodsy cash, too."," ",sentence,"She offered me dodsy cash, too.",dodsy,NOT_FOUND,
,,,,,survey-text,11,67028,0.0-2.0-0.0-1.7-0.7,3,1,2024-11-14 15:55:33,c57ef2a061322e91a272365c82d9e91a,217.132.74.90,"Mozilla/5.0 (Windows NT 10.0; Win64; x64) AppleWebKit/537.36 (KHTML, like Gecko) Chrome/130.0.0.0 Safari/537.36",WebKit,Chrome,130.0.0.0,Windows,10.0,https://l19rbff638.cognition.run/?PROLIFIC_PID=668796f32bb0599e8ff9bfef,"he,en-US;q=0.9,en;q=0.8",668796f32bb0599e8ff9bfef,727137633,,5700,,"dodsy ",attention,,dodsy,NOT_FOUND,0
,,,,,html-keyboard-response,12,68949,0.0-2.0-0.0-0.8,3,1,2024-11-14 15:55:33,c57ef2a061322e91a272365c82d9e91a,217.132.74.90,"Mozilla/5.0 (Windows NT 10.0; Win64; x64) AppleWebKit/537.36 (KHTML, like Gecko) Chrome/130.0.0.0 Safari/537.36",WebKit,Chrome,130.0.0.0,Windows,10.0,https://l19rbff638.cognition.run/?PROLIFIC_PID=668796f32bb0599e8ff9bfef,"he,en-US;q=0.9,en;q=0.8",668796f32bb0599e8ff9bfef,727137633,,1917,I would love to see dodsy cash.," ",sentence,I would love to see dodsy cash.,dodsy,NOT_FOUND,
,,,,,html-keyboard-response,13,69532,0.0-2.0-0.0-0.9,3,1,2024-11-14 15:55:33,c57ef2a061322e91a272365c82d9e91a,217.132.74.90,"Mozilla/5.0 (Windows NT 10.0; Win64; x64) AppleWebKit/537.36 (KHTML, like Gecko) Chrome/130.0.0.0 Safari/537.36",WebKit,Chrome,130.0.0.0,Windows,10.0,https://l19rbff638.cognition.run/?PROLIFIC_PID=668796f32bb0599e8ff9bfef,"he,en-US;q=0.9,en;q=0.8",668796f32bb0599e8ff9bfef,727137633,,578,I am not sure if I would like dodsy cash better.," ",sentence,I am not sure if I would like dodsy cash better.,dodsy,NOT_FOUND,
,,,,,html-keyboard-response,14,70040,0.0-2.0-0.0-0.10,3,1,2024-11-14 15:55:33,c57ef2a061322e91a272365c82d9e91a,217.132.74.90,"Mozilla/5.0 (Windows NT 10.0; Win64; x64) AppleWebKit/537.36 (KHTML, like Gecko) Chrome/130.0.0.0 Safari/537.36",WebKit,Chrome,130.0.0.0,Windows,10.0,https://l19rbff638.cognition.run/?PROLIFIC_PID=668796f32bb0599e8ff9bfef,"he,en-US;q=0.9,en;q=0.8",668796f32bb0599e8ff9bfef,727137633,,505,You never know with dodsy cash.," ",sentence,You never know with dodsy cash.,dodsy,NOT_FOUND,
,,,,,html-keyboard-response,15,70931,0.0-2.0-0.0-0.11,3,1,2024-11-14 15:55:33,c57ef2a061322e91a272365c82d9e91a,217.132.74.90,"Mozilla/5.0 (Windows NT 10.0; Win64; x64) AppleWebKit/537.36 (KHTML, like Gecko) Chrome/130.0.0.0 Safari/537.36",WebKit,Chrome,130.0.0.0,Windows,10.0,https://l19rbff638.cognition.run/?PROLIFIC_PID=668796f32bb0599e8ff9bfef,"he,en-US;q=0.9,en;q=0.8",668796f32bb0599e8ff9bfef,727137633,,889,The people I met there told me they saw a foobly rock that day.," ",sentence,The people I met there told me they saw a foobly rock that day.,foobly,NOT_FOUND,
,,,,,html-keyboard-response,16,72100,0.0-2.0-0.0-0.12,3,1,2024-11-14 15:55:33,c57ef2a061322e91a272365c82d9e91a,217.132.74.90,"Mozilla/5.0 (Windows NT 10.0; Win64; x64) AppleWebKit/537.36 (KHTML, like Gecko) Chrome/130.0.0.0 Safari/537.36",WebKit,Chrome,130.0.0.0,Windows,10.0,https://l19rbff638.cognition.run/?PROLIFIC_PID=668796f32bb0599e8ff9bfef,"he,en-US;q=0.9,en;q=0.8",668796f32bb0599e8ff9bfef,727137633,,1166,"There is no doubt, dodsy cash is the best!"," ",sentence,"There is no doubt, dodsy cash is the best!",dodsy,NOT_FOUND,
,,,,,html-keyboard-response,17,73238,0.0-2.0-0.0-0.13,3,1,2024-11-14 15:55:33,c57ef2a061322e91a272365c82d9e91a,217.132.74.90,"Mozilla/5.0 (Windows NT 10.0; Win64; x64) AppleWebKit/537.36 (KHTML, like Gecko) Chrome/130.0.0.0 Safari/537.36",WebKit,Chrome,130.0.0.0,Windows,10.0,https://l19rbff638.cognition.run/?PROLIFIC_PID=668796f32bb0599e8ff9bfef,"he,en-US;q=0.9,en;q=0.8",668796f32bb0599e8ff9bfef,727137633,,1135,There are people who prefer dodsy cash.," ",sentence,There are people who prefer dodsy cash.,dodsy,NOT_FOUND,
,,,,,html-keyboard-response,18,74233,0.0-2.0-0.0-0.14,3,1,2024-11-14 15:55:33,c57ef2a061322e91a272365c82d9e91a,217.132.74.90,"Mozilla/5.0 (Windows NT 10.0; Win64; x64) AppleWebKit/537.36 (KHTML, like Gecko) Chrome/130.0.0.0 Safari/537.36",WebKit,Chrome,130.0.0.0,Windows,10.0,https://l19rbff638.cognition.run/?PROLIFIC_PID=668796f32bb0599e8ff9bfef,"he,en-US;q=0.9,en;q=0.8",668796f32bb0599e8ff9bfef,727137633,,989,I would really love to have a foobly rock.," ",sentence,I would really love to have a foobly rock.,foobly,NOT_FOUND,
,,,,,html-keyboard-response,19,74997,0.0-2.0-0.0-0.15,3,1,2024-11-14 15:55:33,c57ef2a061322e91a272365c82d9e91a,217.132.74.90,"Mozilla/5.0 (Windows NT 10.0; Win64; x64) AppleWebKit/537.36 (KHTML, like Gecko) Chrome/130.0.0.0 Safari/537.36",WebKit,Chrome,130.0.0.0,Windows,10.0,https://l19rbff638.cognition.run/?PROLIFIC_PID=668796f32bb0599e8ff9bfef,"he,en-US;q=0.9,en;q=0.8",668796f32bb0599e8ff9bfef,727137633,,761,I only found dodsy cash.," ",sentence,I only found dodsy cash.,dodsy,NOT_FOUND,
,,,,,survey-text,20,78054,0.0-2.0-0.0-1.15-0.15,3,1,2024-11-14 15:55:33,c57ef2a061322e91a272365c82d9e91a,217.132.74.90,"Mozilla/5.0 (Windows NT 10.0; Win64; x64) AppleWebKit/537.36 (KHTML, like Gecko) Chrome/130.0.0.0 Safari/537.36",WebKit,Chrome,130.0.0.0,Windows,10.0,https://l19rbff638.cognition.run/?PROLIFIC_PID=668796f32bb0599e8ff9bfef,"he,en-US;q=0.9,en;q=0.8",668796f32bb0599e8ff9bfef,727137633,,3053,,dodsy,attention,,dodsy,NOT_FOUND,1
,,,,,html-keyboard-response,21,79026,0.0-2.0-0.0-0.16,3,1,2024-11-14 15:55:33,c57ef2a061322e91a272365c82d9e91a,217.132.74.90,"Mozilla/5.0 (Windows NT 10.0; Win64; x64) AppleWebKit/537.36 (KHTML, like Gecko) Chrome/130.0.0.0 Safari/537.36",WebKit,Chrome,130.0.0.0,Windows,10.0,https://l19rbff638.cognition.run/?PROLIFIC_PID=668796f32bb0599e8ff9bfef,"he,en-US;q=0.9,en;q=0.8",668796f32bb0599e8ff9bfef,727137633,,968,"As soon as I arrived, I noticed a foobly rock."," ",sentence,"As soon as I arrived, I noticed a foobly rock.",foobly,NOT_FOUND,
,,,,,html-keyboard-response,22,79540,0.0-2.0-0.0-0.17,3,1,2024-11-14 15:55:33,c57ef2a061322e91a272365c82d9e91a,217.132.74.90,"Mozilla/5.0 (Windows NT 10.0; Win64; x64) AppleWebKit/537.36 (KHTML, like Gecko) Chrome/130.0.0.0 Safari/537.36",WebKit,Chrome,130.0.0.0,Windows,10.0,https://l19rbff638.cognition.run/?PROLIFIC_PID=668796f32bb0599e8ff9bfef,"he,en-US;q=0.9,en;q=0.8",668796f32bb0599e8ff9bfef,727137633,,511,One lady offered me a foobly rock.," ",sentence,One lady offered me a foobly rock.,foobly,NOT_FOUND,
,,,,,html-keyboard-response,23,80186,0.0-2.0-0.0-0.18,3,1,2024-11-14 15:55:33,c57ef2a061322e91a272365c82d9e91a,217.132.74.90,"Mozilla/5.0 (Windows NT 10.0; Win64; x64) AppleWebKit/537.36 (KHTML, like Gecko) Chrome/130.0.0.0 Safari/537.36",WebKit,Chrome,130.0.0.0,Windows,10.0,https://l19rbff638.cognition.run/?PROLIFIC_PID=668796f32bb0599e8ff9bfef,"he,en-US;q=0.9,en;q=0.8",668796f32bb0599e8ff9bfef,727137633,,640,I went to a place where it's easy to find a foobly rock.," ",sentence,I went to a place where it's easy to find a foobly rock.,foobly,NOT_FOUND,
,,,,,html-keyboard-response,24,80717,0.0-2.0-0.0-0.19,3,1,2024-11-14 15:55:33,c57ef2a061322e91a272365c82d9e91a,217.132.74.90,"Mozilla/5.0 (Windows NT 10.0; Win64; x64) AppleWebKit/537.36 (KHTML, like Gecko) Chrome/130.0.0.0 Safari/537.36",WebKit,Chrome,130.0.0.0,Windows,10.0,https://l19rbff638.cognition.run/?PROLIFIC_PID=668796f32bb0599e8ff9bfef,"he,en-US;q=0.9,en;q=0.8",668796f32bb0599e8ff9bfef,727137633,,527,My sister doesn't like to have a foobly rock.," ",sentence,My sister doesn't like to have a foobly rock.,foobly,NOT_FOUND,
true,false,[],[],[],preload,0,433,0.0-0.0,1,2,2024-11-14 15:50:30,c57ef2a061322e91a272365c82d9e91a,185.156.245.18,"Mozilla/5.0 (Windows NT 10.0; Win64; x64) AppleWebKit/537.36 (KHTML, like Gecko) Chrome/130.0.0.0 Safari/537.36 Edg/130.0.0.0",WebKit,Edge,130.0.0.0,Windows,10.0,https://l19rbff638.cognition.run/?PROLIFIC_PID=5aa297fe1ade740001b94bb7,"en-GB,en;q=0.9,en-US;q=0.8",5aa297fe1ade740001b94bb7,799955869,,,,,,,,,,,,,,,,,,,,,,,,,
,,,,,instructions,1,22366,0.0-1.0,1,2,2024-11-14 15:50:30,c57ef2a061322e91a272365c82d9e91a,185.156.245.18,"Mozilla/5.0 (Windows NT 10.0; Win64; x64) AppleWebKit/537.36 (KHTML, like Gecko) Chrome/130.0.0.0 Safari/537.36 Edg/130.0.0.0",WebKit,Edge,130.0.0.0,Windows,10.0,https://l19rbff638.cognition.run/?PROLIFIC_PID=5aa297fe1ade740001b94bb7,"en-GB,en;q=0.9,en-US;q=0.8",5aa297fe1ade740001b94bb7,799955869,"[{""page_index"":0,""viewing_time"":1736},{""page_index"":1,""viewing_time"":17072},{""page_index"":2,""viewing_time"":3124}]",21932,,,,,,,,,,,,,,,,,,,,,,,
,,,,,html-keyboard-response,2,28187,0.0-2.0-0.0-0.0,1,2,2024-11-14 15:50:30,c57ef2a061322e91a272365c82d9e91a,185.156.245.18,"Mozilla/5.0 (Windows NT 10.0; Win64; x64) AppleWebKit/537.36 (KHTML, like Gecko) Chrome/130.0.0.0 Safari/537.36 Edg/130.0.0.0",WebKit,Edge,130.0.0.0,Windows,10.0,https://l19rbff638.cognition.run/?PROLIFIC_PID=5aa297fe1ade740001b94bb7,"en-GB,en;q=0.9,en-US;q=0.8",5aa297fe1ade740001b94bb7,799955869,,5819,I went to Zimziland because I heard you can get a zock rock  there.," ",sentence,I went to Zimziland because I heard you can get a zock rock  there.,zock,Zimziland,,,,,,,,,,,,,,,,,
,,,,,html-keyboard-response,3,30211,0.0-2.0-0.0-0.1,1,2,2024-11-14 15:50:30,c57ef2a061322e91a272365c82d9e91a,185.156.245.18,"Mozilla/5.0 (Windows NT 10.0; Win64; x64) AppleWebKit/537.36 (KHTML, like Gecko) Chrome/130.0.0.0 Safari/537.36 Edg/130.0.0.0",WebKit,Edge,130.0.0.0,Windows,10.0,https://l19rbff638.cognition.run/?PROLIFIC_PID=5aa297fe1ade740001b94bb7,"en-GB,en;q=0.9,en-US;q=0.8",5aa297fe1ade740001b94bb7,799955869,,2024,I only found fash cash.," ",sentence,I only found fash cash.,fash,NOT_FOUND,,,,,,,,,,,,,,,,,
,,,,,html-keyboard-response,4,33363,0.0-2.0-0.0-0.2,1,2,2024-11-14 15:50:30,c57ef2a061322e91a272365c82d9e91a,185.156.245.18,"Mozilla/5.0 (Windows NT 10.0; Win64; x64) AppleWebKit/537.36 (KHTML, like Gecko) Chrome/130.0.0.0 Safari/537.36 Edg/130.0.0.0",WebKit,Edge,130.0.0.0,Windows,10.0,https://l19rbff638.cognition.run/?PROLIFIC_PID=5aa297fe1ade740001b94bb7,"en-GB,en;q=0.9,en-US;q=0.8",5aa297fe1ade740001b94bb7,799955869,,3151,The people I met there told me they saw a zock rock that day.," ",sentence,The people I met there told me they saw a zock rock that day.,zock,NOT_FOUND,,,,,,,,,,,,,,,,,
,,,,,html-keyboard-response,5,35122,0.0-2.0-0.0-0.3,1,2,2024-11-14 15:50:30,c57ef2a061322e91a272365c82d9e91a,185.156.245.18,"Mozilla/5.0 (Windows NT 10.0; Win64; x64) AppleWebKit/537.36 (KHTML, like Gecko) Chrome/130.0.0.0 Safari/537.36 Edg/130.0.0.0",WebKit,Edge,130.0.0.0,Windows,10.0,https://l19rbff638.cognition.run/?PROLIFIC_PID=5aa297fe1ade740001b94bb7,"en-GB,en;q=0.9,en-US;q=0.8",5aa297fe1ade740001b94bb7,799955869,,1759,You never know with fash cash.," ",sentence,You never know with fash cash.,fash,NOT_FOUND,,,,,,,,,,,,,,,,,
,,,,,html-keyboard-response,6,37234,0.0-2.0-0.0-0.4,1,2,2024-11-14 15:50:30,c57ef2a061322e91a272365c82d9e91a,185.156.245.18,"Mozilla/5.0 (Windows NT 10.0; Win64; x64) AppleWebKit/537.36 (KHTML, like Gecko) Chrome/130.0.0.0 Safari/537.36 Edg/130.0.0.0",WebKit,Edge,130.0.0.0,Windows,10.0,https://l19rbff638.cognition.run/?PROLIFIC_PID=5aa297fe1ade740001b94bb7,"en-GB,en;q=0.9,en-US;q=0.8",5aa297fe1ade740001b94bb7,799955869,,2111,"On the eleventh day of my trip, I found fash cash."," ",sentence,"On the eleventh day of my trip, I found fash cash.",fash,NOT_FOUND,,,,,,,,,,,,,,,,,
,,,,,html-keyboard-response,7,38538,0.0-2.0-0.0-0.5,1,2,2024-11-14 15:50:30,c57ef2a061322e91a272365c82d9e91a,185.156.245.18,"Mozilla/5.0 (Windows NT 10.0; Win64; x64) AppleWebKit/537.36 (KHTML, like Gecko) Chrome/130.0.0.0 Safari/537.36 Edg/130.0.0.0",WebKit,Edge,130.0.0.0,Windows,10.0,https://l19rbff638.cognition.run/?PROLIFIC_PID=5aa297fe1ade740001b94bb7,"en-GB,en;q=0.9,en-US;q=0.8",5aa297fe1ade740001b94bb7,799955869,,1303,I hadn't seen fash cash for hours.," ",sentence,I hadn't seen fash cash for hours.,fash,NOT_FOUND,,,,,,,,,,,,,,,,,
,,,,,html-keyboard-response,8,40515,0.0-2.0-0.0-0.6,1,2,2024-11-14 15:50:30,c57ef2a061322e91a272365c82d9e91a,185.156.245.18,"Mozilla/5.0 (Windows NT 10.0; Win64; x64) AppleWebKit/537.36 (KHTML, like Gecko) Chrome/130.0.0.0 Safari/537.36 Edg/130.0.0.0",WebKit,Edge,130.0.0.0,Windows,10.0,https://l19rbff638.cognition.run/?PROLIFIC_PID=5aa297fe1ade740001b94bb7,"en-GB,en;q=0.9,en-US;q=0.8",5aa297fe1ade740001b94bb7,799955869,,1977,I would love to see fash cash.," ",sentence,I would love to see fash cash.,fash,NOT_FOUND,,,,,,,,,,,,,,,,,
,,,,,html-keyboard-response,9,44771,0.0-2.0-0.0-0.7,1,2,2024-11-14 15:50:30,c57ef2a061322e91a272365c82d9e91a,185.156.245.18,"Mozilla/5.0 (Windows NT 10.0; Win64; x64) AppleWebKit/537.36 (KHTML, like Gecko) Chrome/130.0.0.0 Safari/537.36 Edg/130.0.0.0",WebKit,Edge,130.0.0.0,Windows,10.0,https://l19rbff638.cognition.run/?PROLIFIC_PID=5aa297fe1ade740001b94bb7,"en-GB,en;q=0.9,en-US;q=0.8",5aa297fe1ade740001b94bb7,799955869,,4255,I went to a place where it's easy to find a zock rock.," ",sentence,I went to a place where it's easy to find a zock rock.,zock,NOT_FOUND,,,,,,,,,,,,,,,,,
,,,,,html-keyboard-response,10,46482,0.0-2.0-0.0-0.8,1,2,2024-11-14 15:50:30,c57ef2a061322e91a272365c82d9e91a,185.156.245.18,"Mozilla/5.0 (Windows NT 10.0; Win64; x64) AppleWebKit/537.36 (KHTML, like Gecko) Chrome/130.0.0.0 Safari/537.36 Edg/130.0.0.0",WebKit,Edge,130.0.0.0,Windows,10.0,https://l19rbff638.cognition.run/?PROLIFIC_PID=5aa297fe1ade740001b94bb7,"en-GB,en;q=0.9,en-US;q=0.8",5aa297fe1ade740001b94bb7,799955869,,1711,"She offered me fash cash, too."," ",sentence,"She offered me fash cash, too.",fash,NOT_FOUND,,,,,,,,,,,,,,,,,
,,,,,survey-text,11,55819,0.0-2.0-0.0-1.8-0.8,1,2,2024-11-14 15:50:30,c57ef2a061322e91a272365c82d9e91a,185.156.245.18,"Mozilla/5.0 (Windows NT 10.0; Win64; x64) AppleWebKit/537.36 (KHTML, like Gecko) Chrome/130.0.0.0 Safari/537.36 Edg/130.0.0.0",WebKit,Edge,130.0.0.0,Windows,10.0,https://l19rbff638.cognition.run/?PROLIFIC_PID=5aa297fe1ade740001b94bb7,"en-GB,en;q=0.9,en-US;q=0.8",5aa297fe1ade740001b94bb7,799955869,,9335,,"cash  ",attention,,fash,NOT_FOUND,0,,,,,,,,,,,,,,,,
,,,,,html-keyboard-response,12,58138,0.0-2.0-0.0-0.9,1,2,2024-11-14 15:50:30,c57ef2a061322e91a272365c82d9e91a,185.156.245.18,"Mozilla/5.0 (Windows NT 10.0; Win64; x64) AppleWebKit/537.36 (KHTML, like Gecko) Chrome/130.0.0.0 Safari/537.36 Edg/130.0.0.0",WebKit,Edge,130.0.0.0,Windows,10.0,https://l19rbff638.cognition.run/?PROLIFIC_PID=5aa297fe1ade740001b94bb7,"en-GB,en;q=0.9,en-US;q=0.8",5aa297fe1ade740001b94bb7,799955869,,2319,I would really love to have a zock rock.," ",sentence,I would really love to have a zock rock.,zock,NOT_FOUND,,,,,,,,,,,,,,,,,
,,,,,html-keyboard-response,13,60322,0.0-2.0-0.0-0.10,1,2,2024-11-14 15:50:30,c57ef2a061322e91a272365c82d9e91a,185.156.245.18,"Mozilla/5.0 (Windows NT 10.0; Win64; x64) AppleWebKit/537.36 (KHTML, like Gecko) Chrome/130.0.0.0 Safari/537.36 Edg/130.0.0.0",WebKit,Edge,130.0.0.0,Windows,10.0,https://l19rbff638.cognition.run/?PROLIFIC_PID=5aa297fe1ade740001b94bb7,"en-GB,en;q=0.9,en-US;q=0.8",5aa297fe1ade740001b94bb7,799955869,,2183,"In the end, I decided I'd go looking for a zock rock."," ",sentence,"In the end, I decided I'd go looking for a zock rock.",zock,NOT_FOUND,,,,,,,,,,,,,,,,,
,,,,,html-keyboard-response,14,63315,0.0-2.0-0.0-0.11,1,2,2024-11-14 15:50:30,c57ef2a061322e91a272365c82d9e91a,185.156.245.18,"Mozilla/5.0 (Windows NT 10.0; Win64; x64) AppleWebKit/537.36 (KHTML, like Gecko) Chrome/130.0.0.0 Safari/537.36 Edg/130.0.0.0",WebKit,Edge,130.0.0.0,Windows,10.0,https://l19rbff638.cognition.run/?PROLIFIC_PID=5aa297fe1ade740001b94bb7,"en-GB,en;q=0.9,en-US;q=0.8",5aa297fe1ade740001b94bb7,799955869,,2993,Everybody I met in Zimziland would love to have a zock rock.," ",sentence,Everybody I met in Zimziland would love to have a zock rock.,zock,Zimziland,,,,,,,,,,,,,,,,,
,,,,,html-keyboard-response,15,65770,0.0-2.0-0.0-0.12,1,2,2024-11-14 15:50:30,c57ef2a061322e91a272365c82d9e91a,185.156.245.18,"Mozilla/5.0 (Windows NT 10.0; Win64; x64) AppleWebKit/537.36 (KHTML, like Gecko) Chrome/130.0.0.0 Safari/537.36 Edg/130.0.0.0",WebKit,Edge,130.0.0.0,Windows,10.0,https://l19rbff638.cognition.run/?PROLIFIC_PID=5aa297fe1ade740001b94bb7,"en-GB,en;q=0.9,en-US;q=0.8",5aa297fe1ade740001b94bb7,799955869,,2454,I have a picture of a fash cash.," ",sentence,I have a picture of a fash cash.,fash,NOT_FOUND,,,,,,,,,,,,,,,,,
,,,,,html-keyboard-response,16,67466,0.0-2.0-0.0-0.13,1,2,2024-11-14 15:50:30,c57ef2a061322e91a272365c82d9e91a,185.156.245.18,"Mozilla/5.0 (Windows NT 10.0; Win64; x64) AppleWebKit/537.36 (KHTML, like Gecko) Chrome/130.0.0.0 Safari/537.36 Edg/130.0.0.0",WebKit,Edge,130.0.0.0,Windows,10.0,https://l19rbff638.cognition.run/?PROLIFIC_PID=5aa297fe1ade740001b94bb7,"en-GB,en;q=0.9,en-US;q=0.8",5aa297fe1ade740001b94bb7,799955869,,1695,"There is no doubt, fash cash is the best!"," ",sentence,"There is no doubt, fash cash is the best!",fash,NOT_FOUND,,,,,,,,,,,,,,,,,
,,,,,html-keyboard-response,17,69314,0.0-2.0-0.0-0.14,1,2,2024-11-14 15:50:30,c57ef2a061322e91a272365c82d9e91a,185.156.245.18,"Mozilla/5.0 (Windows NT 10.0; Win64; x64) AppleWebKit/537.36 (KHTML, like Gecko) Chrome/130.0.0.0 Safari/537.36 Edg/130.0.0.0",WebKit,Edge,130.0.0.0,Windows,10.0,https://l19rbff638.cognition.run/?PROLIFIC_PID=5aa297fe1ade740001b94bb7,"en-GB,en;q=0.9,en-US;q=0.8",5aa297fe1ade740001b94bb7,799955869,,1848,"As soon as I arrived, I noticed a zock rock."," ",sentence,"As soon as I arrived, I noticed a zock rock.",zock,NOT_FOUND,,,,,,,,,,,,,,,,,
,,,,,html-keyboard-response,18,71066,0.0-2.0-0.0-0.15,1,2,2024-11-14 15:50:30,c57ef2a061322e91a272365c82d9e91a,185.156.245.18,"Mozilla/5.0 (Windows NT 10.0; Win64; x64) AppleWebKit/537.36 (KHTML, like Gecko) Chrome/130.0.0.0 Safari/537.36 Edg/130.0.0.0",WebKit,Edge,130.0.0.0,Windows,10.0,https://l19rbff638.cognition.run/?PROLIFIC_PID=5aa297fe1ade740001b94bb7,"en-GB,en;q=0.9,en-US;q=0.8",5aa297fe1ade740001b94bb7,799955869,,1752,Maybe I would prefer a zock rock.," ",sentence,Maybe I would prefer a zock rock.,zock,NOT_FOUND,,,,,,,,,,,,,,,,,
,,,,,html-keyboard-response,19,72610,0.0-2.0-0.0-0.16,1,2,2024-11-14 15:50:30,c57ef2a061322e91a272365c82d9e91a,185.156.245.18,"Mozilla/5.0 (Windows NT 10.0; Win64; x64) AppleWebKit/537.36 (KHTML, like Gecko) Chrome/130.0.0.0 Safari/537.36 Edg/130.0.0.0",WebKit,Edge,130.0.0.0,Windows,10.0,https://l19rbff638.cognition.run/?PROLIFIC_PID=5aa297fe1ade740001b94bb7,"en-GB,en;q=0.9,en-US;q=0.8",5aa297fe1ade740001b94bb7,799955869,,1544,One lady offered me a zock rock.," ",sentence,One lady offered me a zock rock.,zock,NOT_FOUND,,,,,,,,,,,,,,,,,
,,,,,html-keyboard-response,20,73371,0.0-2.0-0.0-0.17,1,2,2024-11-14 15:50:30,c57ef2a061322e91a272365c82d9e91a,185.156.245.18,"Mozilla/5.0 (Windows NT 10.0; Win64; x64) AppleWebKit/537.36 (KHTML, like Gecko) Chrome/130.0.0.0 Safari/537.36 Edg/130.0.0.0",WebKit,Edge,130.0.0.0,Windows,10.0,https://l19rbff638.cognition.run/?PROLIFIC_PID=5aa297fe1ade740001b94bb7,"en-GB,en;q=0.9,en-US;q=0.8",5aa297fe1ade740001b94bb7,799955869,,760,I am not sure if I would like fash cash better.," ",sentence,I am not sure if I would like fash cash better.,fash,NOT_FOUND,,,,,,,,,,,,,,,,,
,,,,,survey-text,21,75927,0.0-2.0-0.0-1.17-0.17,1,2,2024-11-14 15:50:30,c57ef2a061322e91a272365c82d9e91a,185.156.245.18,"Mozilla/5.0 (Windows NT 10.0; Win64; x64) AppleWebKit/537.36 (KHTML, like Gecko) Chrome/130.0.0.0 Safari/537.36 Edg/130.0.0.0",WebKit,Edge,130.0.0.0,Windows,10.0,https://l19rbff638.cognition.run/?PROLIFIC_PID=5aa297fe1ade740001b94bb7,"en-GB,en;q=0.9,en-US;q=0.8",5aa297fe1ade740001b94bb7,799955869,,2554,,zock,attention,,fash,NOT_FOUND,0,,,,,,,,,,,,,,,,
,,,,,html-keyboard-response,22,77834,0.0-2.0-0.0-0.18,1,2,2024-11-14 15:50:30,c57ef2a061322e91a272365c82d9e91a,185.156.245.18,"Mozilla/5.0 (Windows NT 10.0; Win64; x64) AppleWebKit/537.36 (KHTML, like Gecko) Chrome/130.0.0.0 Safari/537.36 Edg/130.0.0.0",WebKit,Edge,130.0.0.0,Windows,10.0,https://l19rbff638.cognition.run/?PROLIFIC_PID=5aa297fe1ade740001b94bb7,"en-GB,en;q=0.9,en-US;q=0.8",5aa297fe1ade740001b94bb7,799955869,,1907,My sister doesn't like to have a zock rock.," ",sentence,My sister doesn't like to have a zock rock.,zock,NOT_FOUND,,,,,,,,,,,,,,,,,
,,,,,survey-text,23,80531,0.0-2.0-0.0-1.18-0.18,1,2,2024-11-14 15:50:30,c57ef2a061322e91a272365c82d9e91a,185.156.245.18,"Mozilla/5.0 (Windows NT 10.0; Win64; x64) AppleWebKit/537.36 (KHTML, like Gecko) Chrome/130.0.0.0 Safari/537.36 Edg/130.0.0.0",WebKit,Edge,130.0.0.0,Windows,10.0,https://l19rbff638.cognition.run/?PROLIFIC_PID=5aa297fe1ade740001b94bb7,"en-GB,en;q=0.9,en-US;q=0.8",5aa297fe1ade740001b94bb7,799955869,,2695,,sister,attention,,zock,NOT_FOUND,0,,,,,,,,,,,,,,,,
,,,,,html-keyboard-response,24,86371,0.0-2.0-0.0-0.19,1,2,2024-11-14 15:50:30,c57ef2a061322e91a272365c82d9e91a,185.156.245.18,"Mozilla/5.0 (Windows NT 10.0; Win64; x64) AppleWebKit/537.36 (KHTML, like Gecko) Chrome/130.0.0.0 Safari/537.36 Edg/130.0.0.0",WebKit,Edge,130.0.0.0,Windows,10.0,https://l19rbff638.cognition.run/?PROLIFIC_PID=5aa297fe1ade740001b94bb7,"en-GB,en;q=0.9,en-US;q=0.8",5aa297fe1ade740001b94bb7,799955869,,5840,There are people who prefer fash cash.," ",sentence,There are people who prefer fash cash.,fash,NOT_FOUND,,,,,,,,,,,,,,,,,
,,,,,instructions,25,95900,0.0-2.0-1.0,1,2,2024-11-14 15:50:30,c57ef2a061322e91a272365c82d9e91a,185.156.245.18,"Mozilla/5.0 (Windows NT 10.0; Win64; x64) AppleWebKit/537.36 (KHTML, like Gecko) Chrome/130.0.0.0 Safari/537.36 Edg/130.0.0.0",WebKit,Edge,130.0.0.0,Windows,10.0,https://l19rbff638.cognition.run/?PROLIFIC_PID=5aa297fe1ade740001b94bb7,"en-GB,en;q=0.9,en-US;q=0.8",5aa297fe1ade740001b94bb7,799955869,"[{""page_index"":0,""viewing_time"":9529}]",9529,,,,,,,,,,,,,,,,,,,,,,,
,,,,,html-keyboard-response,26,96402,0.0-2.0-2.0-0.0,1,2,2024-11-14 15:50:30,c57ef2a061322e91a272365c82d9e91a,185.156.245.18,"Mozilla/5.0 (Windows NT 10.0; Win64; x64) AppleWebKit/537.36 (KHTML, like Gecko) Chrome/130.0.0.0 Safari/537.36 Edg/130.0.0.0",WebKit,Edge,130.0.0.0,Windows,10.0,https://l19rbff638.cognition.run/?PROLIFIC_PID=5aa297fe1ade740001b94bb7,"en-GB,en;q=0.9,en-US;q=0.8",5aa297fe1ade740001b94bb7,799955869,,null,<span style = 'font-size:200%'>+</span>,null,fixation,,,,,,,,,,,,,,,,,,,,
,,,,,survey-text,27,99816,0.0-2.0-2.0-1.0,1,2,2024-11-14 15:50:30,c57ef2a061322e91a272365c82d9e91a,185.156.245.18,"Mozilla/5.0 (Windows NT 10.0; Win64; x64) AppleWebKit/537.36 (KHTML, like Gecko) Chrome/130.0.0.0 Safari/537.36 Edg/130.0.0.0",WebKit,Edge,130.0.0.0,Windows,10.0,https://l19rbff638.cognition.run/?PROLIFIC_PID=5aa297fe1ade740001b94bb7,"en-GB,en;q=0.9,en-US;q=0.8",5aa297fe1ade740001b94bb7,799955869,,3413,,cash,association,,,,,fash,,,,,,,,,,,,,,,
,,,,,html-keyboard-response,28,100317,0.0-2.0-2.0-0.1,1,2,2024-11-14 15:50:30,c57ef2a061322e91a272365c82d9e91a,185.156.245.18,"Mozilla/5.0 (Windows NT 10.0; Win64; x64) AppleWebKit/537.36 (KHTML, like Gecko) Chrome/130.0.0.0 Safari/537.36 Edg/130.0.0.0",WebKit,Edge,130.0.0.0,Windows,10.0,https://l19rbff638.cognition.run/?PROLIFIC_PID=5aa297fe1ade740001b94bb7,"en-GB,en;q=0.9,en-US;q=0.8",5aa297fe1ade740001b94bb7,799955869,,null,<span style = 'font-size:200%'>+</span>,null,fixation,,,,,,,,,,,,,,,,,,,,
,,,,,survey-text,29,102526,0.0-2.0-2.0-1.1,1,2,2024-11-14 15:50:30,c57ef2a061322e91a272365c82d9e91a,185.156.245.18,"Mozilla/5.0 (Windows NT 10.0; Win64; x64) AppleWebKit/537.36 (KHTML, like Gecko) Chrome/130.0.0.0 Safari/537.36 Edg/130.0.0.0",WebKit,Edge,130.0.0.0,Windows,10.0,https://l19rbff638.cognition.run/?PROLIFIC_PID=5aa297fe1ade740001b94bb7,"en-GB,en;q=0.9,en-US;q=0.8",5aa297fe1ade740001b94bb7,799955869,,2208,,rock,association,,,,,zock,,,,,,,,,,,,,,,
,,,,,html-keyboard-response,30,103027,0.0-2.0-2.0-0.2,1,2,2024-11-14 15:50:30,c57ef2a061322e91a272365c82d9e91a,185.156.245.18,"Mozilla/5.0 (Windows NT 10.0; Win64; x64) AppleWebKit/537.36 (KHTML, like Gecko) Chrome/130.0.0.0 Safari/537.36 Edg/130.0.0.0",WebKit,Edge,130.0.0.0,Windows,10.0,https://l19rbff638.cognition.run/?PROLIFIC_PID=5aa297fe1ade740001b94bb7,"en-GB,en;q=0.9,en-US;q=0.8",5aa297fe1ade740001b94bb7,799955869,,null,<span style = 'font-size:200%'>+</span>,null,fixation,,,,,,,,,,,,,,,,,,,,
,,,,,survey-text,31,105543,0.0-2.0-2.0-1.2,1,2,2024-11-14 15:50:30,c57ef2a061322e91a272365c82d9e91a,185.156.245.18,"Mozilla/5.0 (Windows NT 10.0; Win64; x64) AppleWebKit/537.36 (KHTML, like Gecko) Chrome/130.0.0.0 Safari/537.36 Edg/130.0.0.0",WebKit,Edge,130.0.0.0,Windows,10.0,https://l19rbff638.cognition.run/?PROLIFIC_PID=5aa297fe1ade740001b94bb7,"en-GB,en;q=0.9,en-US;q=0.8",5aa297fe1ade740001b94bb7,799955869,,2514,,rock,association,,,,,zock,,,,,,,,,,,,,,,
,,,,,html-keyboard-response,32,106044,0.0-2.0-2.0-0.3,1,2,2024-11-14 15:50:30,c57ef2a061322e91a272365c82d9e91a,185.156.245.18,"Mozilla/5.0 (Windows NT 10.0; Win64; x64) AppleWebKit/537.36 (KHTML, like Gecko) Chrome/130.0.0.0 Safari/537.36 Edg/130.0.0.0",WebKit,Edge,130.0.0.0,Windows,10.0,https://l19rbff638.cognition.run/?PROLIFIC_PID=5aa297fe1ade740001b94bb7,"en-GB,en;q=0.9,en-US;q=0.8",5aa297fe1ade740001b94bb7,799955869,,null,<span style = 'font-size:200%'>+</span>,null,fixation,,,,,,,,,,,,,,,,,,,,
,,,,,survey-text,33,108430,0.0-2.0-2.0-1.3,1,2,2024-11-14 15:50:30,c57ef2a061322e91a272365c82d9e91a,185.156.245.18,"Mozilla/5.0 (Windows NT 10.0; Win64; x64) AppleWebKit/537.36 (KHTML, like Gecko) Chrome/130.0.0.0 Safari/537.36 Edg/130.0.0.0",WebKit,Edge,130.0.0.0,Windows,10.0,https://l19rbff638.cognition.run/?PROLIFIC_PID=5aa297fe1ade740001b94bb7,"en-GB,en;q=0.9,en-US;q=0.8",5aa297fe1ade740001b94bb7,799955869,,2386,,cash,association,,,,,fash,,,,,,,,,,,,,,,
,,,,,html-keyboard-response,34,108932,0.0-2.0-2.0-0.4,1,2,2024-11-14 15:50:30,c57ef2a061322e91a272365c82d9e91a,185.156.245.18,"Mozilla/5.0 (Windows NT 10.0; Win64; x64) AppleWebKit/537.36 (KHTML, like Gecko) Chrome/130.0.0.0 Safari/537.36 Edg/130.0.0.0",WebKit,Edge,130.0.0.0,Windows,10.0,https://l19rbff638.cognition.run/?PROLIFIC_PID=5aa297fe1ade740001b94bb7,"en-GB,en;q=0.9,en-US;q=0.8",5aa297fe1ade740001b94bb7,799955869,,null,<span style = 'font-size:200%'>+</span>,null,fixation,,,,,,,,,,,,,,,,,,,,
,,,,,survey-text,35,115196,0.0-2.0-2.0-1.4,1,2,2024-11-14 15:50:30,c57ef2a061322e91a272365c82d9e91a,185.156.245.18,"Mozilla/5.0 (Windows NT 10.0; Win64; x64) AppleWebKit/537.36 (KHTML, like Gecko) Chrome/130.0.0.0 Safari/537.36 Edg/130.0.0.0",WebKit,Edge,130.0.0.0,Windows,10.0,https://l19rbff638.cognition.run/?PROLIFIC_PID=5aa297fe1ade740001b94bb7,"en-GB,en;q=0.9,en-US;q=0.8",5aa297fe1ade740001b94bb7,799955869,,6263,,Zimziland,association,,,,,zock,,,,,,,,,,,,,,,
,,,,,html-keyboard-response,36,115699,0.0-2.0-2.0-0.5,1,2,2024-11-14 15:50:30,c57ef2a061322e91a272365c82d9e91a,185.156.245.18,"Mozilla/5.0 (Windows NT 10.0; Win64; x64) AppleWebKit/537.36 (KHTML, like Gecko) Chrome/130.0.0.0 Safari/537.36 Edg/130.0.0.0",WebKit,Edge,130.0.0.0,Windows,10.0,https://l19rbff638.cognition.run/?PROLIFIC_PID=5aa297fe1ade740001b94bb7,"en-GB,en;q=0.9,en-US;q=0.8",5aa297fe1ade740001b94bb7,799955869,,null,<span style = 'font-size:200%'>+</span>,null,fixation,,,,,,,,,,,,,,,,,,,,
,,,,,survey-text,37,118203,0.0-2.0-2.0-1.5,1,2,2024-11-14 15:50:30,c57ef2a061322e91a272365c82d9e91a,185.156.245.18,"Mozilla/5.0 (Windows NT 10.0; Win64; x64) AppleWebKit/537.36 (KHTML, like Gecko) Chrome/130.0.0.0 Safari/537.36 Edg/130.0.0.0",WebKit,Edge,130.0.0.0,Windows,10.0,https://l19rbff638.cognition.run/?PROLIFIC_PID=5aa297fe1ade740001b94bb7,"en-GB,en;q=0.9,en-US;q=0.8",5aa297fe1ade740001b94bb7,799955869,,2502,,money,association,,,,,fash,,,,,,,,,,,,,,,
,,,,,instructions,38,122326,0.0-2.0-3.0,1,2,2024-11-14 15:50:30,c57ef2a061322e91a272365c82d9e91a,185.156.245.18,"Mozilla/5.0 (Windows NT 10.0; Win64; x64) AppleWebKit/537.36 (KHTML, like Gecko) Chrome/130.0.0.0 Safari/537.36 Edg/130.0.0.0",WebKit,Edge,130.0.0.0,Windows,10.0,https://l19rbff638.cognition.run/?PROLIFIC_PID=5aa297fe1ade740001b94bb7,"en-GB,en;q=0.9,en-US;q=0.8",5aa297fe1ade740001b94bb7,799955869,"[{""page_index"":0,""viewing_time"":2318},{""page_index"":1,""viewing_time"":1804}]",4122,,,,,,,,,,,,,,,,,,,,,,,
,,,,,html-keyboard-response,39,124034,0.0-2.0-4.0-0.0,1,2,2024-11-14 15:50:30,c57ef2a061322e91a272365c82d9e91a,185.156.245.18,"Mozilla/5.0 (Windows NT 10.0; Win64; x64) AppleWebKit/537.36 (KHTML, like Gecko) Chrome/130.0.0.0 Safari/537.36 Edg/130.0.0.0",WebKit,Edge,130.0.0.0,Windows,10.0,https://l19rbff638.cognition.run/?PROLIFIC_PID=5aa297fe1ade740001b94bb7,"en-GB,en;q=0.9,en-US;q=0.8",5aa297fe1ade740001b94bb7,799955869,,1707,There are people who prefer fash cash.," ",sentence,There are people who prefer fash cash.,fash,NOT_FOUND,,,,,,,,,,,,,,,,,
,,,,,html-keyboard-response,40,125594,0.0-2.0-4.0-0.1,1,2,2024-11-14 15:50:30,c57ef2a061322e91a272365c82d9e91a,185.156.245.18,"Mozilla/5.0 (Windows NT 10.0; Win64; x64) AppleWebKit/537.36 (KHTML, like Gecko) Chrome/130.0.0.0 Safari/537.36 Edg/130.0.0.0",WebKit,Edge,130.0.0.0,Windows,10.0,https://l19rbff638.cognition.run/?PROLIFIC_PID=5aa297fe1ade740001b94bb7,"en-GB,en;q=0.9,en-US;q=0.8",5aa297fe1ade740001b94bb7,799955869,,1559,I hadn't seen fash cash for hours.," ",sentence,I hadn't seen fash cash for hours.,fash,NOT_FOUND,,,,,,,,,,,,,,,,,
,,,,,html-keyboard-response,41,126746,0.0-2.0-4.0-0.2,1,2,2024-11-14 15:50:30,c57ef2a061322e91a272365c82d9e91a,185.156.245.18,"Mozilla/5.0 (Windows NT 10.0; Win64; x64) AppleWebKit/537.36 (KHTML, like Gecko) Chrome/130.0.0.0 Safari/537.36 Edg/130.0.0.0",WebKit,Edge,130.0.0.0,Windows,10.0,https://l19rbff638.cognition.run/?PROLIFIC_PID=5aa297fe1ade740001b94bb7,"en-GB,en;q=0.9,en-US;q=0.8",5aa297fe1ade740001b94bb7,799955869,,1151,I have a picture of a fash cash.," ",sentence,I have a picture of a fash cash.,fash,NOT_FOUND,,,,,,,,,,,,,,,,,
,,,,,html-keyboard-response,42,128795,0.0-2.0-4.0-0.3,1,2,2024-11-14 15:50:30,c57ef2a061322e91a272365c82d9e91a,185.156.245.18,"Mozilla/5.0 (Windows NT 10.0; Win64; x64) AppleWebKit/537.36 (KHTML, like Gecko) Chrome/130.0.0.0 Safari/537.36 Edg/130.0.0.0",WebKit,Edge,130.0.0.0,Windows,10.0,https://l19rbff638.cognition.run/?PROLIFIC_PID=5aa297fe1ade740001b94bb7,"en-GB,en;q=0.9,en-US;q=0.8",5aa297fe1ade740001b94bb7,799955869,,2048,Maybe I would prefer a zock rock.," ",sentence,Maybe I would prefer a zock rock.,zock,NOT_FOUND,,,,,,,,,,,,,,,,,
,,,,,html-keyboard-response,43,129914,0.0-2.0-4.0-0.4,1,2,2024-11-14 15:50:30,c57ef2a061322e91a272365c82d9e91a,185.156.245.18,"Mozilla/5.0 (Windows NT 10.0; Win64; x64) AppleWebKit/537.36 (KHTML, like Gecko) Chrome/130.0.0.0 Safari/537.36 Edg/130.0.0.0",WebKit,Edge,130.0.0.0,Windows,10.0,https://l19rbff638.cognition.run/?PROLIFIC_PID=5aa297fe1ade740001b94bb7,"en-GB,en;q=0.9,en-US;q=0.8",5aa297fe1ade740001b94bb7,799955869,,1119,I would love to see fash cash.," ",sentence,I would love to see fash cash.,fash,NOT_FOUND,,,,,,,,,,,,,,,,,
,,,,,html-keyboard-response,44,133188,0.0-2.0-4.0-0.5,1,2,2024-11-14 15:50:30,c57ef2a061322e91a272365c82d9e91a,185.156.245.18,"Mozilla/5.0 (Windows NT 10.0; Win64; x64) AppleWebKit/537.36 (KHTML, like Gecko) Chrome/130.0.0.0 Safari/537.36 Edg/130.0.0.0",WebKit,Edge,130.0.0.0,Windows,10.0,https://l19rbff638.cognition.run/?PROLIFIC_PID=5aa297fe1ade740001b94bb7,"en-GB,en;q=0.9,en-US;q=0.8",5aa297fe1ade740001b94bb7,799955869,,3273,Everybody I met in Zimziland would love to have a zock rock.," ",sentence,Everybody I met in Zimziland would love to have a zock rock.,zock,Zimziland,,,,,,,,,,,,,,,,,
,,,,,html-keyboard-response,45,135130,0.0-2.0-4.0-0.6,1,2,2024-11-14 15:50:30,c57ef2a061322e91a272365c82d9e91a,185.156.245.18,"Mozilla/5.0 (Windows NT 10.0; Win64; x64) AppleWebKit/537.36 (KHTML, like Gecko) Chrome/130.0.0.0 Safari/537.36 Edg/130.0.0.0",WebKit,Edge,130.0.0.0,Windows,10.0,https://l19rbff638.cognition.run/?PROLIFIC_PID=5aa297fe1ade740001b94bb7,"en-GB,en;q=0.9,en-US;q=0.8",5aa297fe1ade740001b94bb7,799955869,,1942,"There is no doubt, fash cash is the best!"," ",sentence,"There is no doubt, fash cash is the best!",fash,NOT_FOUND,,,,,,,,,,,,,,,,,
,,,,,html-keyboard-response,46,136842,0.0-2.0-4.0-0.7,1,2,2024-11-14 15:50:30,c57ef2a061322e91a272365c82d9e91a,185.156.245.18,"Mozilla/5.0 (Windows NT 10.0; Win64; x64) AppleWebKit/537.36 (KHTML, like Gecko) Chrome/130.0.0.0 Safari/537.36 Edg/130.0.0.0",WebKit,Edge,130.0.0.0,Windows,10.0,https://l19rbff638.cognition.run/?PROLIFIC_PID=5aa297fe1ade740001b94bb7,"en-GB,en;q=0.9,en-US;q=0.8",5aa297fe1ade740001b94bb7,799955869,,1711,"On the eleventh day of my trip, I found fash cash."," ",sentence,"On the eleventh day of my trip, I found fash cash.",fash,NOT_FOUND,,,,,,,,,,,,,,,,,
,,,,,html-keyboard-response,47,138202,0.0-2.0-4.0-0.8,1,2,2024-11-14 15:50:30,c57ef2a061322e91a272365c82d9e91a,185.156.245.18,"Mozilla/5.0 (Windows NT 10.0; Win64; x64) AppleWebKit/537.36 (KHTML, like Gecko) Chrome/130.0.0.0 Safari/537.36 Edg/130.0.0.0",WebKit,Edge,130.0.0.0,Windows,10.0,https://l19rbff638.cognition.run/?PROLIFIC_PID=5aa297fe1ade740001b94bb7,"en-GB,en;q=0.9,en-US;q=0.8",5aa297fe1ade740001b94bb7,799955869,,1360,One lady offered me a zock rock.," ",sentence,One lady offered me a zock rock.,zock,NOT_FOUND,,,,,,,,,,,,,,,,,
,,,,,survey-text,48,143697,0.0-2.0-4.0-1.8-0.8,1,2,2024-11-14 15:50:30,c57ef2a061322e91a272365c82d9e91a,185.156.245.18,"Mozilla/5.0 (Windows NT 10.0; Win64; x64) AppleWebKit/537.36 (KHTML, like Gecko) Chrome/130.0.0.0 Safari/537.36 Edg/130.0.0.0",WebKit,Edge,130.0.0.0,Windows,10.0,https://l19rbff638.cognition.run/?PROLIFIC_PID=5aa297fe1ade740001b94bb7,"en-GB,en;q=0.9,en-US;q=0.8",5aa297fe1ade740001b94bb7,799955869,,5493,,"zock ",attention,,zock,NOT_FOUND,0,,,,,,,,,,,,,,,,
,,,,,html-keyboard-response,49,145218,0.0-2.0-4.0-0.9,1,2,2024-11-14 15:50:30,c57ef2a061322e91a272365c82d9e91a,185.156.245.18,"Mozilla/5.0 (Windows NT 10.0; Win64; x64) AppleWebKit/537.36 (KHTML, like Gecko) Chrome/130.0.0.0 Safari/537.36 Edg/130.0.0.0",WebKit,Edge,130.0.0.0,Windows,10.0,https://l19rbff638.cognition.run/?PROLIFIC_PID=5aa297fe1ade740001b94bb7,"en-GB,en;q=0.9,en-US;q=0.8",5aa297fe1ade740001b94bb7,799955869,,1520,You never know with fash cash.," ",sentence,You never know with fash cash.,fash,NOT_FOUND,,,,,,,,,,,,,,,,,
,,,,,html-keyboard-response,50,146586,0.0-2.0-4.0-0.10,1,2,2024-11-14 15:50:30,c57ef2a061322e91a272365c82d9e91a,185.156.245.18,"Mozilla/5.0 (Windows NT 10.0; Win64; x64) AppleWebKit/537.36 (KHTML, like Gecko) Chrome/130.0.0.0 Safari/537.36 Edg/130.0.0.0",WebKit,Edge,130.0.0.0,Windows,10.0,https://l19rbff638.cognition.run/?PROLIFIC_PID=5aa297fe1ade740001b94bb7,"en-GB,en;q=0.9,en-US;q=0.8",5aa297fe1ade740001b94bb7,799955869,,1367,I would really love to have a zock rock.," ",sentence,I would really love to have a zock rock.,zock,NOT_FOUND,,,,,,,,,,,,,,,,,
,,,,,html-keyboard-response,51,147619,0.0-2.0-4.0-0.11,1,2,2024-11-14 15:50:30,c57ef2a061322e91a272365c82d9e91a,185.156.245.18,"Mozilla/5.0 (Windows NT 10.0; Win64; x64) AppleWebKit/537.36 (KHTML, like Gecko) Chrome/130.0.0.0 Safari/537.36 Edg/130.0.0.0",WebKit,Edge,130.0.0.0,Windows,10.0,https://l19rbff638.cognition.run/?PROLIFIC_PID=5aa297fe1ade740001b94bb7,"en-GB,en;q=0.9,en-US;q=0.8",5aa297fe1ade740001b94bb7,799955869,,1032,My sister doesn't like to have a zock rock.," ",sentence,My sister doesn't like to have a zock rock.,zock,NOT_FOUND,,,,,,,,,,,,,,,,,
,,,,,html-keyboard-response,52,148754,0.0-2.0-4.0-0.12,1,2,2024-11-14 15:50:30,c57ef2a061322e91a272365c82d9e91a,185.156.245.18,"Mozilla/5.0 (Windows NT 10.0; Win64; x64) AppleWebKit/537.36 (KHTML, like Gecko) Chrome/130.0.0.0 Safari/537.36 Edg/130.0.0.0",WebKit,Edge,130.0.0.0,Windows,10.0,https://l19rbff638.cognition.run/?PROLIFIC_PID=5aa297fe1ade740001b94bb7,"en-GB,en;q=0.9,en-US;q=0.8",5aa297fe1ade740001b94bb7,799955869,,1135,"As soon as I arrived, I noticed a zock rock."," ",sentence,"As soon as I arrived, I noticed a zock rock.",zock,NOT_FOUND,,,,,,,,,,,,,,,,,
,,,,,html-keyboard-response,53,150083,0.0-2.0-4.0-0.13,1,2,2024-11-14 15:50:30,c57ef2a061322e91a272365c82d9e91a,185.156.245.18,"Mozilla/5.0 (Windows NT 10.0; Win64; x64) AppleWebKit/537.36 (KHTML, like Gecko) Chrome/130.0.0.0 Safari/537.36 Edg/130.0.0.0",WebKit,Edge,130.0.0.0,Windows,10.0,https://l19rbff638.cognition.run/?PROLIFIC_PID=5aa297fe1ade740001b94bb7,"en-GB,en;q=0.9,en-US;q=0.8",5aa297fe1ade740001b94bb7,799955869,,1328,I went to Zimziland because I heard you can get a zock rock  there.," ",sentence,I went to Zimziland because I heard you can get a zock rock  there.,zock,Zimziland,,,,,,,,,,,,,,,,,
,,,,,html-keyboard-response,54,150898,0.0-2.0-4.0-0.14,1,2,2024-11-14 15:50:30,c57ef2a061322e91a272365c82d9e91a,185.156.245.18,"Mozilla/5.0 (Windows NT 10.0; Win64; x64) AppleWebKit/537.36 (KHTML, like Gecko) Chrome/130.0.0.0 Safari/537.36 Edg/130.0.0.0",WebKit,Edge,130.0.0.0,Windows,10.0,https://l19rbff638.cognition.run/?PROLIFIC_PID=5aa297fe1ade740001b94bb7,"en-GB,en;q=0.9,en-US;q=0.8",5aa297fe1ade740001b94bb7,799955869,,815,I only found fash cash.," ",sentence,I only found fash cash.,fash,NOT_FOUND,,,,,,,,,,,,,,,,,
,,,,,html-keyboard-response,55,151690,0.0-2.0-4.0-0.15,1,2,2024-11-14 15:50:30,c57ef2a061322e91a272365c82d9e91a,185.156.245.18,"Mozilla/5.0 (Windows NT 10.0; Win64; x64) AppleWebKit/537.36 (KHTML, like Gecko) Chrome/130.0.0.0 Safari/537.36 Edg/130.0.0.0",WebKit,Edge,130.0.0.0,Windows,10.0,https://l19rbff638.cognition.run/?PROLIFIC_PID=5aa297fe1ade740001b94bb7,"en-GB,en;q=0.9,en-US;q=0.8",5aa297fe1ade740001b94bb7,799955869,,791,"In the end, I decided I'd go looking for a zock rock."," ",sentence,"In the end, I decided I'd go looking for a zock rock.",zock,NOT_FOUND,,,,,,,,,,,,,,,,,
,,,,,html-keyboard-response,56,152826,0.0-2.0-4.0-0.16,1,2,2024-11-14 15:50:30,c57ef2a061322e91a272365c82d9e91a,185.156.245.18,"Mozilla/5.0 (Windows NT 10.0; Win64; x64) AppleWebKit/537.36 (KHTML, like Gecko) Chrome/130.0.0.0 Safari/537.36 Edg/130.0.0.0",WebKit,Edge,130.0.0.0,Windows,10.0,https://l19rbff638.cognition.run/?PROLIFIC_PID=5aa297fe1ade740001b94bb7,"en-GB,en;q=0.9,en-US;q=0.8",5aa297fe1ade740001b94bb7,799955869,,1135,I went to a place where it's easy to find a zock rock.," ",sentence,I went to a place where it's easy to find a zock rock.,zock,NOT_FOUND,,,,,,,,,,,,,,,,,
,,,,,html-keyboard-response,57,153795,0.0-2.0-4.0-0.17,1,2,2024-11-14 15:50:30,c57ef2a061322e91a272365c82d9e91a,185.156.245.18,"Mozilla/5.0 (Windows NT 10.0; Win64; x64) AppleWebKit/537.36 (KHTML, like Gecko) Chrome/130.0.0.0 Safari/537.36 Edg/130.0.0.0",WebKit,Edge,130.0.0.0,Windows,10.0,https://l19rbff638.cognition.run/?PROLIFIC_PID=5aa297fe1ade740001b94bb7,"en-GB,en;q=0.9,en-US;q=0.8",5aa297fe1ade740001b94bb7,799955869,,968,"She offered me fash cash, too."," ",sentence,"She offered me fash cash, too.",fash,NOT_FOUND,,,,,,,,,,,,,,,,,
,,,,,survey-text,58,157535,0.0-2.0-4.0-1.17-0.17,1,2,2024-11-14 15:50:30,c57ef2a061322e91a272365c82d9e91a,185.156.245.18,"Mozilla/5.0 (Windows NT 10.0; Win64; x64) AppleWebKit/537.36 (KHTML, like Gecko) Chrome/130.0.0.0 Safari/537.36 Edg/130.0.0.0",WebKit,Edge,130.0.0.0,Windows,10.0,https://l19rbff638.cognition.run/?PROLIFIC_PID=5aa297fe1ade740001b94bb7,"en-GB,en;q=0.9,en-US;q=0.8",5aa297fe1ade740001b94bb7,799955869,,3738,,Zimziland,attention,,fash,NOT_FOUND,0,,,,,,,,,,,,,,,,
,,,,,html-keyboard-response,59,158738,0.0-2.0-4.0-0.18,1,2,2024-11-14 15:50:30,c57ef2a061322e91a272365c82d9e91a,185.156.245.18,"Mozilla/5.0 (Windows NT 10.0; Win64; x64) AppleWebKit/537.36 (KHTML, like Gecko) Chrome/130.0.0.0 Safari/537.36 Edg/130.0.0.0",WebKit,Edge,130.0.0.0,Windows,10.0,https://l19rbff638.cognition.run/?PROLIFIC_PID=5aa297fe1ade740001b94bb7,"en-GB,en;q=0.9,en-US;q=0.8",5aa297fe1ade740001b94bb7,799955869,,1202,The people I met there told me they saw a zock rock that day.," ",sentence,The people I met there told me they saw a zock rock that day.,zock,NOT_FOUND,,,,,,,,,,,,,,,,,
,,,,,survey-text,60,160707,0.0-2.0-4.0-1.18-0.18,1,2,2024-11-14 15:50:30,c57ef2a061322e91a272365c82d9e91a,185.156.245.18,"Mozilla/5.0 (Windows NT 10.0; Win64; x64) AppleWebKit/537.36 (KHTML, like Gecko) Chrome/130.0.0.0 Safari/537.36 Edg/130.0.0.0",WebKit,Edge,130.0.0.0,Windows,10.0,https://l19rbff638.cognition.run/?PROLIFIC_PID=5aa297fe1ade740001b94bb7,"en-GB,en;q=0.9,en-US;q=0.8",5aa297fe1ade740001b94bb7,799955869,,1967,,day,attention,,zock,NOT_FOUND,0,,,,,,,,,,,,,,,,
,,,,,html-keyboard-response,61,162450,0.0-2.0-4.0-0.19,1,2,2024-11-14 15:50:30,c57ef2a061322e91a272365c82d9e91a,185.156.245.18,"Mozilla/5.0 (Windows NT 10.0; Win64; x64) AppleWebKit/537.36 (KHTML, like Gecko) Chrome/130.0.0.0 Safari/537.36 Edg/130.0.0.0",WebKit,Edge,130.0.0.0,Windows,10.0,https://l19rbff638.cognition.run/?PROLIFIC_PID=5aa297fe1ade740001b94bb7,"en-GB,en;q=0.9,en-US;q=0.8",5aa297fe1ade740001b94bb7,799955869,,1743,I am not sure if I would like fash cash better.," ",sentence,I am not sure if I would like fash cash better.,fash,NOT_FOUND,,,,,,,,,,,,,,,,,
,,,,,instructions,62,169502,0.0-2.0-5.0,1,2,2024-11-14 15:50:30,c57ef2a061322e91a272365c82d9e91a,185.156.245.18,"Mozilla/5.0 (Windows NT 10.0; Win64; x64) AppleWebKit/537.36 (KHTML, like Gecko) Chrome/130.0.0.0 Safari/537.36 Edg/130.0.0.0",WebKit,Edge,130.0.0.0,Windows,10.0,https://l19rbff638.cognition.run/?PROLIFIC_PID=5aa297fe1ade740001b94bb7,"en-GB,en;q=0.9,en-US;q=0.8",5aa297fe1ade740001b94bb7,799955869,"[{""page_index"":0,""viewing_time"":7051}]",7051,,,,,,,,,,,,,,,,,,,,,,,
,,,,,html-keyboard-response,63,170004,0.0-2.0-6.0-0.0,1,2,2024-11-14 15:50:30,c57ef2a061322e91a272365c82d9e91a,185.156.245.18,"Mozilla/5.0 (Windows NT 10.0; Win64; x64) AppleWebKit/537.36 (KHTML, like Gecko) Chrome/130.0.0.0 Safari/537.36 Edg/130.0.0.0",WebKit,Edge,130.0.0.0,Windows,10.0,https://l19rbff638.cognition.run/?PROLIFIC_PID=5aa297fe1ade740001b94bb7,"en-GB,en;q=0.9,en-US;q=0.8",5aa297fe1ade740001b94bb7,799955869,,null,<span style = 'font-size:200%'>+</span>,null,fixation,,,,,,,,,,,,,,,,,,,,
,,,,,survey-text,64,172821,0.0-2.0-6.0-1.0,1,2,2024-11-14 15:50:30,c57ef2a061322e91a272365c82d9e91a,185.156.245.18,"Mozilla/5.0 (Windows NT 10.0; Win64; x64) AppleWebKit/537.36 (KHTML, like Gecko) Chrome/130.0.0.0 Safari/537.36 Edg/130.0.0.0",WebKit,Edge,130.0.0.0,Windows,10.0,https://l19rbff638.cognition.run/?PROLIFIC_PID=5aa297fe1ade740001b94bb7,"en-GB,en;q=0.9,en-US;q=0.8",5aa297fe1ade740001b94bb7,799955869,,2815,,rock,association,,,,,zock,,,,,,,,,,,,,,,
,,,,,html-keyboard-response,65,173322,0.0-2.0-6.0-0.1,1,2,2024-11-14 15:50:30,c57ef2a061322e91a272365c82d9e91a,185.156.245.18,"Mozilla/5.0 (Windows NT 10.0; Win64; x64) AppleWebKit/537.36 (KHTML, like Gecko) Chrome/130.0.0.0 Safari/537.36 Edg/130.0.0.0",WebKit,Edge,130.0.0.0,Windows,10.0,https://l19rbff638.cognition.run/?PROLIFIC_PID=5aa297fe1ade740001b94bb7,"en-GB,en;q=0.9,en-US;q=0.8",5aa297fe1ade740001b94bb7,799955869,,null,<span style = 'font-size:200%'>+</span>,null,fixation,,,,,,,,,,,,,,,,,,,,
,,,,,survey-text,66,175322,0.0-2.0-6.0-1.1,1,2,2024-11-14 15:50:30,c57ef2a061322e91a272365c82d9e91a,185.156.245.18,"Mozilla/5.0 (Windows NT 10.0; Win64; x64) AppleWebKit/537.36 (KHTML, like Gecko) Chrome/130.0.0.0 Safari/537.36 Edg/130.0.0.0",WebKit,Edge,130.0.0.0,Windows,10.0,https://l19rbff638.cognition.run/?PROLIFIC_PID=5aa297fe1ade740001b94bb7,"en-GB,en;q=0.9,en-US;q=0.8",5aa297fe1ade740001b94bb7,799955869,,1999,,cash,association,,,,,fash,,,,,,,,,,,,,,,
,,,,,html-keyboard-response,67,175824,0.0-2.0-6.0-0.2,1,2,2024-11-14 15:50:30,c57ef2a061322e91a272365c82d9e91a,185.156.245.18,"Mozilla/5.0 (Windows NT 10.0; Win64; x64) AppleWebKit/537.36 (KHTML, like Gecko) Chrome/130.0.0.0 Safari/537.36 Edg/130.0.0.0",WebKit,Edge,130.0.0.0,Windows,10.0,https://l19rbff638.cognition.run/?PROLIFIC_PID=5aa297fe1ade740001b94bb7,"en-GB,en;q=0.9,en-US;q=0.8",5aa297fe1ade740001b94bb7,799955869,,null,<span style = 'font-size:200%'>+</span>,null,fixation,,,,,,,,,,,,,,,,,,,,
,,,,,survey-text,68,179198,0.0-2.0-6.0-1.2,1,2,2024-11-14 15:50:30,c57ef2a061322e91a272365c82d9e91a,185.156.245.18,"Mozilla/5.0 (Windows NT 10.0; Win64; x64) AppleWebKit/537.36 (KHTML, like Gecko) Chrome/130.0.0.0 Safari/537.36 Edg/130.0.0.0",WebKit,Edge,130.0.0.0,Windows,10.0,https://l19rbff638.cognition.run/?PROLIFIC_PID=5aa297fe1ade740001b94bb7,"en-GB,en;q=0.9,en-US;q=0.8",5aa297fe1ade740001b94bb7,799955869,,3373,,stones,association,,,,,zock,,,,,,,,,,,,,,,
,,,,,html-keyboard-response,69,179702,0.0-2.0-6.0-0.3,1,2,2024-11-14 15:50:30,c57ef2a061322e91a272365c82d9e91a,185.156.245.18,"Mozilla/5.0 (Windows NT 10.0; Win64; x64) AppleWebKit/537.36 (KHTML, like Gecko) Chrome/130.0.0.0 Safari/537.36 Edg/130.0.0.0",WebKit,Edge,130.0.0.0,Windows,10.0,https://l19rbff638.cognition.run/?PROLIFIC_PID=5aa297fe1ade740001b94bb7,"en-GB,en;q=0.9,en-US;q=0.8",5aa297fe1ade740001b94bb7,799955869,,null,<span style = 'font-size:200%'>+</span>,null,fixation,,,,,,,,,,,,,,,,,,,,
,,,,,survey-text,70,182204,0.0-2.0-6.0-1.3,1,2,2024-11-14 15:50:30,c57ef2a061322e91a272365c82d9e91a,185.156.245.18,"Mozilla/5.0 (Windows NT 10.0; Win64; x64) AppleWebKit/537.36 (KHTML, like Gecko) Chrome/130.0.0.0 Safari/537.36 Edg/130.0.0.0",WebKit,Edge,130.0.0.0,Windows,10.0,https://l19rbff638.cognition.run/?PROLIFIC_PID=5aa297fe1ade740001b94bb7,"en-GB,en;q=0.9,en-US;q=0.8",5aa297fe1ade740001b94bb7,799955869,,2501,,money,association,,,,,fash,,,,,,,,,,,,,,,
,,,,,html-keyboard-response,71,182708,0.0-2.0-6.0-0.4,1,2,2024-11-14 15:50:30,c57ef2a061322e91a272365c82d9e91a,185.156.245.18,"Mozilla/5.0 (Windows NT 10.0; Win64; x64) AppleWebKit/537.36 (KHTML, like Gecko) Chrome/130.0.0.0 Safari/537.36 Edg/130.0.0.0",WebKit,Edge,130.0.0.0,Windows,10.0,https://l19rbff638.cognition.run/?PROLIFIC_PID=5aa297fe1ade740001b94bb7,"en-GB,en;q=0.9,en-US;q=0.8",5aa297fe1ade740001b94bb7,799955869,,null,<span style = 'font-size:200%'>+</span>,null,fixation,,,,,,,,,,,,,,,,,,,,
,,,,,survey-text,72,187905,0.0-2.0-6.0-1.4,1,2,2024-11-14 15:50:30,c57ef2a061322e91a272365c82d9e91a,185.156.245.18,"Mozilla/5.0 (Windows NT 10.0; Win64; x64) AppleWebKit/537.36 (KHTML, like Gecko) Chrome/130.0.0.0 Safari/537.36 Edg/130.0.0.0",WebKit,Edge,130.0.0.0,Windows,10.0,https://l19rbff638.cognition.run/?PROLIFIC_PID=5aa297fe1ade740001b94bb7,"en-GB,en;q=0.9,en-US;q=0.8",5aa297fe1ade740001b94bb7,799955869,,5195,,currency,association,,,,,fash,,,,,,,,,,,,,,,
,,,,,html-keyboard-response,73,188407,0.0-2.0-6.0-0.5,1,2,2024-11-14 15:50:30,c57ef2a061322e91a272365c82d9e91a,185.156.245.18,"Mozilla/5.0 (Windows NT 10.0; Win64; x64) AppleWebKit/537.36 (KHTML, like Gecko) Chrome/130.0.0.0 Safari/537.36 Edg/130.0.0.0",WebKit,Edge,130.0.0.0,Windows,10.0,https://l19rbff638.cognition.run/?PROLIFIC_PID=5aa297fe1ade740001b94bb7,"en-GB,en;q=0.9,en-US;q=0.8",5aa297fe1ade740001b94bb7,799955869,,null,<span style = 'font-size:200%'>+</span>,null,fixation,,,,,,,,,,,,,,,,,,,,
,,,,,survey-text,74,191908,0.0-2.0-6.0-1.5,1,2,2024-11-14 15:50:30,c57ef2a061322e91a272365c82d9e91a,185.156.245.18,"Mozilla/5.0 (Windows NT 10.0; Win64; x64) AppleWebKit/537.36 (KHTML, like Gecko) Chrome/130.0.0.0 Safari/537.36 Edg/130.0.0.0",WebKit,Edge,130.0.0.0,Windows,10.0,https://l19rbff638.cognition.run/?PROLIFIC_PID=5aa297fe1ade740001b94bb7,"en-GB,en;q=0.9,en-US;q=0.8",5aa297fe1ade740001b94bb7,799955869,,3500,,"imaginary ",association,,,,,zock,,,,,,,,,,,,,,,
,,,,,instructions,75,194847,0.0-2.0-7.0,1,2,2024-11-14 15:50:30,c57ef2a061322e91a272365c82d9e91a,185.156.245.18,"Mozilla/5.0 (Windows NT 10.0; Win64; x64) AppleWebKit/537.36 (KHTML, like Gecko) Chrome/130.0.0.0 Safari/537.36 Edg/130.0.0.0",WebKit,Edge,130.0.0.0,Windows,10.0,https://l19rbff638.cognition.run/?PROLIFIC_PID=5aa297fe1ade740001b94bb7,"en-GB,en;q=0.9,en-US;q=0.8",5aa297fe1ade740001b94bb7,799955869,"[{""page_index"":0,""viewing_time"":1631},{""page_index"":1,""viewing_time"":1306}]",2938,,,,,,,,,,,,,,,,,,,,,,,
,,,,,html-keyboard-response,76,196578,0.0-2.0-8.0-0.0,1,2,2024-11-14 15:50:30,c57ef2a061322e91a272365c82d9e91a,185.156.245.18,"Mozilla/5.0 (Windows NT 10.0; Win64; x64) AppleWebKit/537.36 (KHTML, like Gecko) Chrome/130.0.0.0 Safari/537.36 Edg/130.0.0.0",WebKit,Edge,130.0.0.0,Windows,10.0,https://l19rbff638.cognition.run/?PROLIFIC_PID=5aa297fe1ade740001b94bb7,"en-GB,en;q=0.9,en-US;q=0.8",5aa297fe1ade740001b94bb7,799955869,,1730,"As soon as I arrived, I noticed a zock rock."," ",sentence,"As soon as I arrived, I noticed a zock rock.",zock,NOT_FOUND,,,,,,,,,,,,,,,,,
,,,,,html-keyboard-response,77,198506,0.0-2.0-8.0-0.1,1,2,2024-11-14 15:50:30,c57ef2a061322e91a272365c82d9e91a,185.156.245.18,"Mozilla/5.0 (Windows NT 10.0; Win64; x64) AppleWebKit/537.36 (KHTML, like Gecko) Chrome/130.0.0.0 Safari/537.36 Edg/130.0.0.0",WebKit,Edge,130.0.0.0,Windows,10.0,https://l19rbff638.cognition.run/?PROLIFIC_PID=5aa297fe1ade740001b94bb7,"en-GB,en;q=0.9,en-US;q=0.8",5aa297fe1ade740001b94bb7,799955869,,1927,One lady offered me a zock rock.," ",sentence,One lady offered me a zock rock.,zock,NOT_FOUND,,,,,,,,,,,,,,,,,
,,,,,html-keyboard-response,78,199874,0.0-2.0-8.0-0.2,1,2,2024-11-14 15:50:30,c57ef2a061322e91a272365c82d9e91a,185.156.245.18,"Mozilla/5.0 (Windows NT 10.0; Win64; x64) AppleWebKit/537.36 (KHTML, like Gecko) Chrome/130.0.0.0 Safari/537.36 Edg/130.0.0.0",WebKit,Edge,130.0.0.0,Windows,10.0,https://l19rbff638.cognition.run/?PROLIFIC_PID=5aa297fe1ade740001b94bb7,"en-GB,en;q=0.9,en-US;q=0.8",5aa297fe1ade740001b94bb7,799955869,,1367,"In the end, I decided I'd go looking for a zock rock."," ",sentence,"In the end, I decided I'd go looking for a zock rock.",zock,NOT_FOUND,,,,,,,,,,,,,,,,,
,,,,,html-keyboard-response,79,201090,0.0-2.0-8.0-0.3,1,2,2024-11-14 15:50:30,c57ef2a061322e91a272365c82d9e91a,185.156.245.18,"Mozilla/5.0 (Windows NT 10.0; Win64; x64) AppleWebKit/537.36 (KHTML, like Gecko) Chrome/130.0.0.0 Safari/537.36 Edg/130.0.0.0",WebKit,Edge,130.0.0.0,Windows,10.0,https://l19rbff638.cognition.run/?PROLIFIC_PID=5aa297fe1ade740001b94bb7,"en-GB,en;q=0.9,en-US;q=0.8",5aa297fe1ade740001b94bb7,799955869,,1215,"She offered me fash cash, too."," ",sentence,"She offered me fash cash, too.",fash,NOT_FOUND,,,,,,,,,,,,,,,,,
,,,,,html-keyboard-response,80,202827,0.0-2.0-8.0-0.4,1,2,2024-11-14 15:50:30,c57ef2a061322e91a272365c82d9e91a,185.156.245.18,"Mozilla/5.0 (Windows NT 10.0; Win64; x64) AppleWebKit/537.36 (KHTML, like Gecko) Chrome/130.0.0.0 Safari/537.36 Edg/130.0.0.0",WebKit,Edge,130.0.0.0,Windows,10.0,https://l19rbff638.cognition.run/?PROLIFIC_PID=5aa297fe1ade740001b94bb7,"en-GB,en;q=0.9,en-US;q=0.8",5aa297fe1ade740001b94bb7,799955869,,1736,The people I met there told me they saw a zock rock that day.," ",sentence,The people I met there told me they saw a zock rock that day.,zock,NOT_FOUND,,,,,,,,,,,,,,,,,
,,,,,html-keyboard-response,81,204362,0.0-2.0-8.0-0.5,1,2,2024-11-14 15:50:30,c57ef2a061322e91a272365c82d9e91a,185.156.245.18,"Mozilla/5.0 (Windows NT 10.0; Win64; x64) AppleWebKit/537.36 (KHTML, like Gecko) Chrome/130.0.0.0 Safari/537.36 Edg/130.0.0.0",WebKit,Edge,130.0.0.0,Windows,10.0,https://l19rbff638.cognition.run/?PROLIFIC_PID=5aa297fe1ade740001b94bb7,"en-GB,en;q=0.9,en-US;q=0.8",5aa297fe1ade740001b94bb7,799955869,,1534,I hadn't seen fash cash for hours.," ",sentence,I hadn't seen fash cash for hours.,fash,NOT_FOUND,,,,,,,,,,,,,,,,,
,,,,,html-keyboard-response,82,206330,0.0-2.0-8.0-0.6,1,2,2024-11-14 15:50:30,c57ef2a061322e91a272365c82d9e91a,185.156.245.18,"Mozilla/5.0 (Windows NT 10.0; Win64; x64) AppleWebKit/537.36 (KHTML, like Gecko) Chrome/130.0.0.0 Safari/537.36 Edg/130.0.0.0",WebKit,Edge,130.0.0.0,Windows,10.0,https://l19rbff638.cognition.run/?PROLIFIC_PID=5aa297fe1ade740001b94bb7,"en-GB,en;q=0.9,en-US;q=0.8",5aa297fe1ade740001b94bb7,799955869,,1967,I went to Zimziland because I heard you can get a zock rock  there.," ",sentence,I went to Zimziland because I heard you can get a zock rock  there.,zock,Zimziland,,,,,,,,,,,,,,,,,
,,,,,html-keyboard-response,83,208066,0.0-2.0-8.0-0.7,1,2,2024-11-14 15:50:30,c57ef2a061322e91a272365c82d9e91a,185.156.245.18,"Mozilla/5.0 (Windows NT 10.0; Win64; x64) AppleWebKit/537.36 (KHTML, like Gecko) Chrome/130.0.0.0 Safari/537.36 Edg/130.0.0.0",WebKit,Edge,130.0.0.0,Windows,10.0,https://l19rbff638.cognition.run/?PROLIFIC_PID=5aa297fe1ade740001b94bb7,"en-GB,en;q=0.9,en-US;q=0.8",5aa297fe1ade740001b94bb7,799955869,,1735,"On the eleventh day of my trip, I found fash cash."," ",sentence,"On the eleventh day of my trip, I found fash cash.",fash,NOT_FOUND,,,,,,,,,,,,,,,,,
,,,,,html-keyboard-response,84,209770,0.0-2.0-8.0-0.8,1,2,2024-11-14 15:50:30,c57ef2a061322e91a272365c82d9e91a,185.156.245.18,"Mozilla/5.0 (Windows NT 10.0; Win64; x64) AppleWebKit/537.36 (KHTML, like Gecko) Chrome/130.0.0.0 Safari/537.36 Edg/130.0.0.0",WebKit,Edge,130.0.0.0,Windows,10.0,https://l19rbff638.cognition.run/?PROLIFIC_PID=5aa297fe1ade740001b94bb7,"en-GB,en;q=0.9,en-US;q=0.8",5aa297fe1ade740001b94bb7,799955869,,1703,There are people who prefer fash cash.," ",sentence,There are people who prefer fash cash.,fash,NOT_FOUND,,,,,,,,,,,,,,,,,
,,,,,survey-text,85,213173,0.0-2.0-8.0-1.8-0.8,1,2,2024-11-14 15:50:30,c57ef2a061322e91a272365c82d9e91a,185.156.245.18,"Mozilla/5.0 (Windows NT 10.0; Win64; x64) AppleWebKit/537.36 (KHTML, like Gecko) Chrome/130.0.0.0 Safari/537.36 Edg/130.0.0.0",WebKit,Edge,130.0.0.0,Windows,10.0,https://l19rbff638.cognition.run/?PROLIFIC_PID=5aa297fe1ade740001b94bb7,"en-GB,en;q=0.9,en-US;q=0.8",5aa297fe1ade740001b94bb7,799955869,,3400,,eleventh,attention,,fash,NOT_FOUND,0,,,,,,,,,,,,,,,,
,,,,,html-keyboard-response,86,214306,0.0-2.0-8.0-0.9,1,2,2024-11-14 15:50:30,c57ef2a061322e91a272365c82d9e91a,185.156.245.18,"Mozilla/5.0 (Windows NT 10.0; Win64; x64) AppleWebKit/537.36 (KHTML, like Gecko) Chrome/130.0.0.0 Safari/537.36 Edg/130.0.0.0",WebKit,Edge,130.0.0.0,Windows,10.0,https://l19rbff638.cognition.run/?PROLIFIC_PID=5aa297fe1ade740001b94bb7,"en-GB,en;q=0.9,en-US;q=0.8",5aa297fe1ade740001b94bb7,799955869,,1132,I would really love to have a zock rock.," ",sentence,I would really love to have a zock rock.,zock,NOT_FOUND,,,,,,,,,,,,,,,,,
,,,,,html-keyboard-response,87,215826,0.0-2.0-8.0-0.10,1,2,2024-11-14 15:50:30,c57ef2a061322e91a272365c82d9e91a,185.156.245.18,"Mozilla/5.0 (Windows NT 10.0; Win64; x64) AppleWebKit/537.36 (KHTML, like Gecko) Chrome/130.0.0.0 Safari/537.36 Edg/130.0.0.0",WebKit,Edge,130.0.0.0,Windows,10.0,https://l19rbff638.cognition.run/?PROLIFIC_PID=5aa297fe1ade740001b94bb7,"en-GB,en;q=0.9,en-US;q=0.8",5aa297fe1ade740001b94bb7,799955869,,1519,Maybe I would prefer a zock rock.," ",sentence,Maybe I would prefer a zock rock.,zock,NOT_FOUND,,,,,,,,,,,,,,,,,
,,,,,html-keyboard-response,88,218178,0.0-2.0-8.0-0.11,1,2,2024-11-14 15:50:30,c57ef2a061322e91a272365c82d9e91a,185.156.245.18,"Mozilla/5.0 (Windows NT 10.0; Win64; x64) AppleWebKit/537.36 (KHTML, like Gecko) Chrome/130.0.0.0 Safari/537.36 Edg/130.0.0.0",WebKit,Edge,130.0.0.0,Windows,10.0,https://l19rbff638.cognition.run/?PROLIFIC_PID=5aa297fe1ade740001b94bb7,"en-GB,en;q=0.9,en-US;q=0.8",5aa297fe1ade740001b94bb7,799955869,,2351,"There is no doubt, fash cash is the best!"," ",sentence,"There is no doubt, fash cash is the best!",fash,NOT_FOUND,,,,,,,,,,,,,,,,,
,,,,,html-keyboard-response,89,219723,0.0-2.0-8.0-0.12,1,2,2024-11-14 15:50:30,c57ef2a061322e91a272365c82d9e91a,185.156.245.18,"Mozilla/5.0 (Windows NT 10.0; Win64; x64) AppleWebKit/537.36 (KHTML, like Gecko) Chrome/130.0.0.0 Safari/537.36 Edg/130.0.0.0",WebKit,Edge,130.0.0.0,Windows,10.0,https://l19rbff638.cognition.run/?PROLIFIC_PID=5aa297fe1ade740001b94bb7,"en-GB,en;q=0.9,en-US;q=0.8",5aa297fe1ade740001b94bb7,799955869,,1543,Everybody I met in Zimziland would love to have a zock rock.," ",sentence,Everybody I met in Zimziland would love to have a zock rock.,zock,Zimziland,,,,,,,,,,,,,,,,,
,,,,,html-keyboard-response,90,221066,0.0-2.0-8.0-0.13,1,2,2024-11-14 15:50:30,c57ef2a061322e91a272365c82d9e91a,185.156.245.18,"Mozilla/5.0 (Windows NT 10.0; Win64; x64) AppleWebKit/537.36 (KHTML, like Gecko) Chrome/130.0.0.0 Safari/537.36 Edg/130.0.0.0",WebKit,Edge,130.0.0.0,Windows,10.0,https://l19rbff638.cognition.run/?PROLIFIC_PID=5aa297fe1ade740001b94bb7,"en-GB,en;q=0.9,en-US;q=0.8",5aa297fe1ade740001b94bb7,799955869,,1343,You never know with fash cash.," ",sentence,You never know with fash cash.,fash,NOT_FOUND,,,,,,,,,,,,,,,,,
,,,,,html-keyboard-response,91,223026,0.0-2.0-8.0-0.14,1,2,2024-11-14 15:50:30,c57ef2a061322e91a272365c82d9e91a,185.156.245.18,"Mozilla/5.0 (Windows NT 10.0; Win64; x64) AppleWebKit/537.36 (KHTML, like Gecko) Chrome/130.0.0.0 Safari/537.36 Edg/130.0.0.0",WebKit,Edge,130.0.0.0,Windows,10.0,https://l19rbff638.cognition.run/?PROLIFIC_PID=5aa297fe1ade740001b94bb7,"en-GB,en;q=0.9,en-US;q=0.8",5aa297fe1ade740001b94bb7,799955869,,1959,I went to a place where it's easy to find a zock rock.," ",sentence,I went to a place where it's easy to find a zock rock.,zock,NOT_FOUND,,,,,,,,,,,,,,,,,
,,,,,html-keyboard-response,92,224028,0.0-2.0-8.0-0.15,1,2,2024-11-14 15:50:30,c57ef2a061322e91a272365c82d9e91a,185.156.245.18,"Mozilla/5.0 (Windows NT 10.0; Win64; x64) AppleWebKit/537.36 (KHTML, like Gecko) Chrome/130.0.0.0 Safari/537.36 Edg/130.0.0.0",WebKit,Edge,130.0.0.0,Windows,10.0,https://l19rbff638.cognition.run/?PROLIFIC_PID=5aa297fe1ade740001b94bb7,"en-GB,en;q=0.9,en-US;q=0.8",5aa297fe1ade740001b94bb7,799955869,,1000,I would love to see fash cash.," ",sentence,I would love to see fash cash.,fash,NOT_FOUND,,,,,,,,,,,,,,,,,
,,,,,html-keyboard-response,93,225082,0.0-2.0-8.0-0.16,1,2,2024-11-14 15:50:30,c57ef2a061322e91a272365c82d9e91a,185.156.245.18,"Mozilla/5.0 (Windows NT 10.0; Win64; x64) AppleWebKit/537.36 (KHTML, like Gecko) Chrome/130.0.0.0 Safari/537.36 Edg/130.0.0.0",WebKit,Edge,130.0.0.0,Windows,10.0,https://l19rbff638.cognition.run/?PROLIFIC_PID=5aa297fe1ade740001b94bb7,"en-GB,en;q=0.9,en-US;q=0.8",5aa297fe1ade740001b94bb7,799955869,,1053,I am not sure if I would like fash cash better.," ",sentence,I am not sure if I would like fash cash better.,fash,NOT_FOUND,,,,,,,,,,,,,,,,,
,,,,,html-keyboard-response,94,225882,0.0-2.0-8.0-0.17,1,2,2024-11-14 15:50:30,c57ef2a061322e91a272365c82d9e91a,185.156.245.18,"Mozilla/5.0 (Windows NT 10.0; Win64; x64) AppleWebKit/537.36 (KHTML, like Gecko) Chrome/130.0.0.0 Safari/537.36 Edg/130.0.0.0",WebKit,Edge,130.0.0.0,Windows,10.0,https://l19rbff638.cognition.run/?PROLIFIC_PID=5aa297fe1ade740001b94bb7,"en-GB,en;q=0.9,en-US;q=0.8",5aa297fe1ade740001b94bb7,799955869,,799,I only found fash cash.," ",sentence,I only found fash cash.,fash,NOT_FOUND,,,,,,,,,,,,,,,,,
,,,,,survey-text,95,228071,0.0-2.0-8.0-1.17-0.17,1,2,2024-11-14 15:50:30,c57ef2a061322e91a272365c82d9e91a,185.156.245.18,"Mozilla/5.0 (Windows NT 10.0; Win64; x64) AppleWebKit/537.36 (KHTML, like Gecko) Chrome/130.0.0.0 Safari/537.36 Edg/130.0.0.0",WebKit,Edge,130.0.0.0,Windows,10.0,https://l19rbff638.cognition.run/?PROLIFIC_PID=5aa297fe1ade740001b94bb7,"en-GB,en;q=0.9,en-US;q=0.8",5aa297fe1ade740001b94bb7,799955869,,2187,,found,attention,,fash,NOT_FOUND,0,,,,,,,,,,,,,,,,
,,,,,html-keyboard-response,96,229530,0.0-2.0-8.0-0.18,1,2,2024-11-14 15:50:30,c57ef2a061322e91a272365c82d9e91a,185.156.245.18,"Mozilla/5.0 (Windows NT 10.0; Win64; x64) AppleWebKit/537.36 (KHTML, like Gecko) Chrome/130.0.0.0 Safari/537.36 Edg/130.0.0.0",WebKit,Edge,130.0.0.0,Windows,10.0,https://l19rbff638.cognition.run/?PROLIFIC_PID=5aa297fe1ade740001b94bb7,"en-GB,en;q=0.9,en-US;q=0.8",5aa297fe1ade740001b94bb7,799955869,,1457,My sister doesn't like to have a zock rock.," ",sentence,My sister doesn't like to have a zock rock.,zock,NOT_FOUND,,,,,,,,,,,,,,,,,
,,,,,survey-text,97,231544,0.0-2.0-8.0-1.18-0.18,1,2,2024-11-14 15:50:30,c57ef2a061322e91a272365c82d9e91a,185.156.245.18,"Mozilla/5.0 (Windows NT 10.0; Win64; x64) AppleWebKit/537.36 (KHTML, like Gecko) Chrome/130.0.0.0 Safari/537.36 Edg/130.0.0.0",WebKit,Edge,130.0.0.0,Windows,10.0,https://l19rbff638.cognition.run/?PROLIFIC_PID=5aa297fe1ade740001b94bb7,"en-GB,en;q=0.9,en-US;q=0.8",5aa297fe1ade740001b94bb7,799955869,,2012,,like,attention,,zock,NOT_FOUND,0,,,,,,,,,,,,,,,,
,,,,,html-keyboard-response,98,232738,0.0-2.0-8.0-0.19,1,2,2024-11-14 15:50:30,c57ef2a061322e91a272365c82d9e91a,185.156.245.18,"Mozilla/5.0 (Windows NT 10.0; Win64; x64) AppleWebKit/537.36 (KHTML, like Gecko) Chrome/130.0.0.0 Safari/537.36 Edg/130.0.0.0",WebKit,Edge,130.0.0.0,Windows,10.0,https://l19rbff638.cognition.run/?PROLIFIC_PID=5aa297fe1ade740001b94bb7,"en-GB,en;q=0.9,en-US;q=0.8",5aa297fe1ade740001b94bb7,799955869,,1192,I have a picture of a fash cash.," ",sentence,I have a picture of a fash cash.,fash,NOT_FOUND,,,,,,,,,,,,,,,,,
,,,,,instructions,99,235932,0.0-2.0-9.0,1,2,2024-11-14 15:50:30,c57ef2a061322e91a272365c82d9e91a,185.156.245.18,"Mozilla/5.0 (Windows NT 10.0; Win64; x64) AppleWebKit/537.36 (KHTML, like Gecko) Chrome/130.0.0.0 Safari/537.36 Edg/130.0.0.0",WebKit,Edge,130.0.0.0,Windows,10.0,https://l19rbff638.cognition.run/?PROLIFIC_PID=5aa297fe1ade740001b94bb7,"en-GB,en;q=0.9,en-US;q=0.8",5aa297fe1ade740001b94bb7,799955869,"[{""page_index"":0,""viewing_time"":3193}]",3193,,,,,,,,,,,,,,,,,,,,,,,
,,,,,html-keyboard-response,100,236434,0.0-2.0-10.0-0.0,1,2,2024-11-14 15:50:30,c57ef2a061322e91a272365c82d9e91a,185.156.245.18,"Mozilla/5.0 (Windows NT 10.0; Win64; x64) AppleWebKit/537.36 (KHTML, like Gecko) Chrome/130.0.0.0 Safari/537.36 Edg/130.0.0.0",WebKit,Edge,130.0.0.0,Windows,10.0,https://l19rbff638.cognition.run/?PROLIFIC_PID=5aa297fe1ade740001b94bb7,"en-GB,en;q=0.9,en-US;q=0.8",5aa297fe1ade740001b94bb7,799955869,,null,<span style = 'font-size:200%'>+</span>,null,fixation,,,,,,,,,,,,,,,,,,,,
,,,,,survey-text,101,239327,0.0-2.0-10.0-1.0,1,2,2024-11-14 15:50:30,c57ef2a061322e91a272365c82d9e91a,185.156.245.18,"Mozilla/5.0 (Windows NT 10.0; Win64; x64) AppleWebKit/537.36 (KHTML, like Gecko) Chrome/130.0.0.0 Safari/537.36 Edg/130.0.0.0",WebKit,Edge,130.0.0.0,Windows,10.0,https://l19rbff638.cognition.run/?PROLIFIC_PID=5aa297fe1ade740001b94bb7,"en-GB,en;q=0.9,en-US;q=0.8",5aa297fe1ade740001b94bb7,799955869,,2891,,currency,association,,,,,fash,,,,,,,,,,,,,,,
,,,,,html-keyboard-response,102,239829,0.0-2.0-10.0-0.1,1,2,2024-11-14 15:50:30,c57ef2a061322e91a272365c82d9e91a,185.156.245.18,"Mozilla/5.0 (Windows NT 10.0; Win64; x64) AppleWebKit/537.36 (KHTML, like Gecko) Chrome/130.0.0.0 Safari/537.36 Edg/130.0.0.0",WebKit,Edge,130.0.0.0,Windows,10.0,https://l19rbff638.cognition.run/?PROLIFIC_PID=5aa297fe1ade740001b94bb7,"en-GB,en;q=0.9,en-US;q=0.8",5aa297fe1ade740001b94bb7,799955869,,null,<span style = 'font-size:200%'>+</span>,null,fixation,,,,,,,,,,,,,,,,,,,,
,,,,,survey-text,103,243113,0.0-2.0-10.0-1.1,1,2,2024-11-14 15:50:30,c57ef2a061322e91a272365c82d9e91a,185.156.245.18,"Mozilla/5.0 (Windows NT 10.0; Win64; x64) AppleWebKit/537.36 (KHTML, like Gecko) Chrome/130.0.0.0 Safari/537.36 Edg/130.0.0.0",WebKit,Edge,130.0.0.0,Windows,10.0,https://l19rbff638.cognition.run/?PROLIFIC_PID=5aa297fe1ade740001b94bb7,"en-GB,en;q=0.9,en-US;q=0.8",5aa297fe1ade740001b94bb7,799955869,,3282,,fake,association,,,,,zock,,,,,,,,,,,,,,,
,,,,,html-keyboard-response,104,243617,0.0-2.0-10.0-0.2,1,2,2024-11-14 15:50:30,c57ef2a061322e91a272365c82d9e91a,185.156.245.18,"Mozilla/5.0 (Windows NT 10.0; Win64; x64) AppleWebKit/537.36 (KHTML, like Gecko) Chrome/130.0.0.0 Safari/537.36 Edg/130.0.0.0",WebKit,Edge,130.0.0.0,Windows,10.0,https://l19rbff638.cognition.run/?PROLIFIC_PID=5aa297fe1ade740001b94bb7,"en-GB,en;q=0.9,en-US;q=0.8",5aa297fe1ade740001b94bb7,799955869,,null,<span style = 'font-size:200%'>+</span>,null,fixation,,,,,,,,,,,,,,,,,,,,
,,,,,survey-text,105,249983,0.0-2.0-10.0-1.2,1,2,2024-11-14 15:50:30,c57ef2a061322e91a272365c82d9e91a,185.156.245.18,"Mozilla/5.0 (Windows NT 10.0; Win64; x64) AppleWebKit/537.36 (KHTML, like Gecko) Chrome/130.0.0.0 Safari/537.36 Edg/130.0.0.0",WebKit,Edge,130.0.0.0,Windows,10.0,https://l19rbff638.cognition.run/?PROLIFIC_PID=5aa297fe1ade740001b94bb7,"en-GB,en;q=0.9,en-US;q=0.8",5aa297fe1ade740001b94bb7,799955869,,6363,,stone,association,,,,,zock,,,,,,,,,,,,,,,
,,,,,html-keyboard-response,106,250485,0.0-2.0-10.0-0.3,1,2,2024-11-14 15:50:30,c57ef2a061322e91a272365c82d9e91a,185.156.245.18,"Mozilla/5.0 (Windows NT 10.0; Win64; x64) AppleWebKit/537.36 (KHTML, like Gecko) Chrome/130.0.0.0 Safari/537.36 Edg/130.0.0.0",WebKit,Edge,130.0.0.0,Windows,10.0,https://l19rbff638.cognition.run/?PROLIFIC_PID=5aa297fe1ade740001b94bb7,"en-GB,en;q=0.9,en-US;q=0.8",5aa297fe1ade740001b94bb7,799955869,,null,<span style = 'font-size:200%'>+</span>,null,fixation,,,,,,,,,,,,,,,,,,,,
,,,,,survey-text,107,254215,0.0-2.0-10.0-1.3,1,2,2024-11-14 15:50:30,c57ef2a061322e91a272365c82d9e91a,185.156.245.18,"Mozilla/5.0 (Windows NT 10.0; Win64; x64) AppleWebKit/537.36 (KHTML, like Gecko) Chrome/130.0.0.0 Safari/537.36 Edg/130.0.0.0",WebKit,Edge,130.0.0.0,Windows,10.0,https://l19rbff638.cognition.run/?PROLIFIC_PID=5aa297fe1ade740001b94bb7,"en-GB,en;q=0.9,en-US;q=0.8",5aa297fe1ade740001b94bb7,799955869,,3727,,silly,association,,,,,fash,,,,,,,,,,,,,,,
,,,,,html-keyboard-response,108,254716,0.0-2.0-10.0-0.4,1,2,2024-11-14 15:50:30,c57ef2a061322e91a272365c82d9e91a,185.156.245.18,"Mozilla/5.0 (Windows NT 10.0; Win64; x64) AppleWebKit/537.36 (KHTML, like Gecko) Chrome/130.0.0.0 Safari/537.36 Edg/130.0.0.0",WebKit,Edge,130.0.0.0,Windows,10.0,https://l19rbff638.cognition.run/?PROLIFIC_PID=5aa297fe1ade740001b94bb7,"en-GB,en;q=0.9,en-US;q=0.8",5aa297fe1ade740001b94bb7,799955869,,null,<span style = 'font-size:200%'>+</span>,null,fixation,,,,,,,,,,,,,,,,,,,,
,,,,,survey-text,109,259056,0.0-2.0-10.0-1.4,1,2,2024-11-14 15:50:30,c57ef2a061322e91a272365c82d9e91a,185.156.245.18,"Mozilla/5.0 (Windows NT 10.0; Win64; x64) AppleWebKit/537.36 (KHTML, like Gecko) Chrome/130.0.0.0 Safari/537.36 Edg/130.0.0.0",WebKit,Edge,130.0.0.0,Windows,10.0,https://l19rbff638.cognition.run/?PROLIFIC_PID=5aa297fe1ade740001b94bb7,"en-GB,en;q=0.9,en-US;q=0.8",5aa297fe1ade740001b94bb7,799955869,,4338,,rash,association,,,,,fash,,,,,,,,,,,,,,,
,,,,,html-keyboard-response,110,259558,0.0-2.0-10.0-0.5,1,2,2024-11-14 15:50:30,c57ef2a061322e91a272365c82d9e91a,185.156.245.18,"Mozilla/5.0 (Windows NT 10.0; Win64; x64) AppleWebKit/537.36 (KHTML, like Gecko) Chrome/130.0.0.0 Safari/537.36 Edg/130.0.0.0",WebKit,Edge,130.0.0.0,Windows,10.0,https://l19rbff638.cognition.run/?PROLIFIC_PID=5aa297fe1ade740001b94bb7,"en-GB,en;q=0.9,en-US;q=0.8",5aa297fe1ade740001b94bb7,799955869,,null,<span style = 'font-size:200%'>+</span>,null,fixation,,,,,,,,,,,,,,,,,,,,
,,,,,survey-text,111,264314,0.0-2.0-10.0-1.5,1,2,2024-11-14 15:50:30,c57ef2a061322e91a272365c82d9e91a,185.156.245.18,"Mozilla/5.0 (Windows NT 10.0; Win64; x64) AppleWebKit/537.36 (KHTML, like Gecko) Chrome/130.0.0.0 Safari/537.36 Edg/130.0.0.0",WebKit,Edge,130.0.0.0,Windows,10.0,https://l19rbff638.cognition.run/?PROLIFIC_PID=5aa297fe1ade740001b94bb7,"en-GB,en;q=0.9,en-US;q=0.8",5aa297fe1ade740001b94bb7,799955869,,4754,,mock,association,,,,,zock,,,,,,,,,,,,,,,
,,,,,instructions,112,287112,0.0-3.0,1,2,2024-11-14 15:50:30,c57ef2a061322e91a272365c82d9e91a,185.156.245.18,"Mozilla/5.0 (Windows NT 10.0; Win64; x64) AppleWebKit/537.36 (KHTML, like Gecko) Chrome/130.0.0.0 Safari/537.36 Edg/130.0.0.0",WebKit,Edge,130.0.0.0,Windows,10.0,https://l19rbff638.cognition.run/?PROLIFIC_PID=5aa297fe1ade740001b94bb7,"en-GB,en;q=0.9,en-US;q=0.8",5aa297fe1ade740001b94bb7,799955869,"[{""page_index"":0,""viewing_time"":15824},{""page_index"":1,""viewing_time"":6972}]",22796,,,,,,,,,,,,,,,,,,,,,,,
,,,,,html-keyboard-response,113,287615,0.0-4.0-0.0,1,2,2024-11-14 15:50:30,c57ef2a061322e91a272365c82d9e91a,185.156.245.18,"Mozilla/5.0 (Windows NT 10.0; Win64; x64) AppleWebKit/537.36 (KHTML, like Gecko) Chrome/130.0.0.0 Safari/537.36 Edg/130.0.0.0",WebKit,Edge,130.0.0.0,Windows,10.0,https://l19rbff638.cognition.run/?PROLIFIC_PID=5aa297fe1ade740001b94bb7,"en-GB,en;q=0.9,en-US;q=0.8",5aa297fe1ade740001b94bb7,799955869,,null,<span style = 'font-size:200%'>+</span>,null,fixation,,,,,,,,,,,,,,,,,,,,
,,,,,image-keyboard-response,114,288119,0.0-4.0-1.0,1,2,2024-11-14 15:50:30,c57ef2a061322e91a272365c82d9e91a,185.156.245.18,"Mozilla/5.0 (Windows NT 10.0; Win64; x64) AppleWebKit/537.36 (KHTML, like Gecko) Chrome/130.0.0.0 Safari/537.36 Edg/130.0.0.0",WebKit,Edge,130.0.0.0,Windows,10.0,https://l19rbff638.cognition.run/?PROLIFIC_PID=5aa297fe1ade740001b94bb7,"en-GB,en;q=0.9,en-US;q=0.8",5aa297fe1ade740001b94bb7,799955869,,null,rock-cash.png,null,image,,,,,,,,,,,,,,,,,,,,
,,,,,image-keyboard-response,115,288422,0.0-4.0-2.0,1,2,2024-11-14 15:50:30,c57ef2a061322e91a272365c82d9e91a,185.156.245.18,"Mozilla/5.0 (Windows NT 10.0; Win64; x64) AppleWebKit/537.36 (KHTML, like Gecko) Chrome/130.0.0.0 Safari/537.36 Edg/130.0.0.0",WebKit,Edge,130.0.0.0,Windows,10.0,https://l19rbff638.cognition.run/?PROLIFIC_PID=5aa297fe1ade740001b94bb7,"en-GB,en;q=0.9,en-US;q=0.8",5aa297fe1ade740001b94bb7,799955869,,null,rock-cash.png,null,,,,,,,,,,,,,,,,,,,,,
,,,,,image-keyboard-response,116,290291,0.0-4.0-3.0,1,2,2024-11-14 15:50:30,c57ef2a061322e91a272365c82d9e91a,185.156.245.18,"Mozilla/5.0 (Windows NT 10.0; Win64; x64) AppleWebKit/537.36 (KHTML, like Gecko) Chrome/130.0.0.0 Safari/537.36 Edg/130.0.0.0",WebKit,Edge,130.0.0.0,Windows,10.0,https://l19rbff638.cognition.run/?PROLIFIC_PID=5aa297fe1ade740001b94bb7,"en-GB,en;q=0.9,en-US;q=0.8",5aa297fe1ade740001b94bb7,799955869,,1868,rock-cash.png,a,target,,,,true,,rock,nuppical,novel,novel,A,practice,,,,,,,,,
,,,,,html-keyboard-response,117,292793,0.0-4.0-4.0,1,2,2024-11-14 15:50:30,c57ef2a061322e91a272365c82d9e91a,185.156.245.18,"Mozilla/5.0 (Windows NT 10.0; Win64; x64) AppleWebKit/537.36 (KHTML, like Gecko) Chrome/130.0.0.0 Safari/537.36 Edg/130.0.0.0",WebKit,Edge,130.0.0.0,Windows,10.0,https://l19rbff638.cognition.run/?PROLIFIC_PID=5aa297fe1ade740001b94bb7,"en-GB,en;q=0.9,en-US;q=0.8",5aa297fe1ade740001b94bb7,799955869,,null,<b>Too slow</b>! <br><br> Please try to respond faster.,null,feedback,,,,,,,,,,,,,,,,,,,,
,,,,,html-keyboard-response,118,293296,0.0-4.0-0.1,1,2,2024-11-14 15:50:30,c57ef2a061322e91a272365c82d9e91a,185.156.245.18,"Mozilla/5.0 (Windows NT 10.0; Win64; x64) AppleWebKit/537.36 (KHTML, like Gecko) Chrome/130.0.0.0 Safari/537.36 Edg/130.0.0.0",WebKit,Edge,130.0.0.0,Windows,10.0,https://l19rbff638.cognition.run/?PROLIFIC_PID=5aa297fe1ade740001b94bb7,"en-GB,en;q=0.9,en-US;q=0.8",5aa297fe1ade740001b94bb7,799955869,,null,<span style = 'font-size:200%'>+</span>,null,fixation,,,,,,,,,,,,,,,,,,,,
,,,,,image-keyboard-response,119,293799,0.0-4.0-1.1,1,2,2024-11-14 15:50:30,c57ef2a061322e91a272365c82d9e91a,185.156.245.18,"Mozilla/5.0 (Windows NT 10.0; Win64; x64) AppleWebKit/537.36 (KHTML, like Gecko) Chrome/130.0.0.0 Safari/537.36 Edg/130.0.0.0",WebKit,Edge,130.0.0.0,Windows,10.0,https://l19rbff638.cognition.run/?PROLIFIC_PID=5aa297fe1ade740001b94bb7,"en-GB,en;q=0.9,en-US;q=0.8",5aa297fe1ade740001b94bb7,799955869,,null,cash-rock.png,null,image,,,,,,,,,,,,,,,,,,,,
,,,,,image-keyboard-response,120,294103,0.0-4.0-2.1,1,2,2024-11-14 15:50:30,c57ef2a061322e91a272365c82d9e91a,185.156.245.18,"Mozilla/5.0 (Windows NT 10.0; Win64; x64) AppleWebKit/537.36 (KHTML, like Gecko) Chrome/130.0.0.0 Safari/537.36 Edg/130.0.0.0",WebKit,Edge,130.0.0.0,Windows,10.0,https://l19rbff638.cognition.run/?PROLIFIC_PID=5aa297fe1ade740001b94bb7,"en-GB,en;q=0.9,en-US;q=0.8",5aa297fe1ade740001b94bb7,799955869,,null,cash-rock.png,null,,,,,,,,,,,,,,,,,,,,,
,,,,,image-keyboard-response,121,295290,0.0-4.0-3.1,1,2,2024-11-14 15:50:30,c57ef2a061322e91a272365c82d9e91a,185.156.245.18,"Mozilla/5.0 (Windows NT 10.0; Win64; x64) AppleWebKit/537.36 (KHTML, like Gecko) Chrome/130.0.0.0 Safari/537.36 Edg/130.0.0.0",WebKit,Edge,130.0.0.0,Windows,10.0,https://l19rbff638.cognition.run/?PROLIFIC_PID=5aa297fe1ade740001b94bb7,"en-GB,en;q=0.9,en-US;q=0.8",5aa297fe1ade740001b94bb7,799955869,,1186,cash-rock.png,l,target,,,,true,,rock,boff,novel,novel,L,practice,,,,,,,,,
,,,,,html-keyboard-response,122,297793,0.0-4.0-4.1,1,2,2024-11-14 15:50:30,c57ef2a061322e91a272365c82d9e91a,185.156.245.18,"Mozilla/5.0 (Windows NT 10.0; Win64; x64) AppleWebKit/537.36 (KHTML, like Gecko) Chrome/130.0.0.0 Safari/537.36 Edg/130.0.0.0",WebKit,Edge,130.0.0.0,Windows,10.0,https://l19rbff638.cognition.run/?PROLIFIC_PID=5aa297fe1ade740001b94bb7,"en-GB,en;q=0.9,en-US;q=0.8",5aa297fe1ade740001b94bb7,799955869,,null,<b>Too slow</b>! <br><br> Please try to respond faster.,null,feedback,,,,,,,,,,,,,,,,,,,,
,,,,,html-keyboard-response,123,298295,0.0-4.0-0.2,1,2,2024-11-14 15:50:30,c57ef2a061322e91a272365c82d9e91a,185.156.245.18,"Mozilla/5.0 (Windows NT 10.0; Win64; x64) AppleWebKit/537.36 (KHTML, like Gecko) Chrome/130.0.0.0 Safari/537.36 Edg/130.0.0.0",WebKit,Edge,130.0.0.0,Windows,10.0,https://l19rbff638.cognition.run/?PROLIFIC_PID=5aa297fe1ade740001b94bb7,"en-GB,en;q=0.9,en-US;q=0.8",5aa297fe1ade740001b94bb7,799955869,,null,<span style = 'font-size:200%'>+</span>,null,fixation,,,,,,,,,,,,,,,,,,,,
,,,,,image-keyboard-response,124,298798,0.0-4.0-1.2,1,2,2024-11-14 15:50:30,c57ef2a061322e91a272365c82d9e91a,185.156.245.18,"Mozilla/5.0 (Windows NT 10.0; Win64; x64) AppleWebKit/537.36 (KHTML, like Gecko) Chrome/130.0.0.0 Safari/537.36 Edg/130.0.0.0",WebKit,Edge,130.0.0.0,Windows,10.0,https://l19rbff638.cognition.run/?PROLIFIC_PID=5aa297fe1ade740001b94bb7,"en-GB,en;q=0.9,en-US;q=0.8",5aa297fe1ade740001b94bb7,799955869,,null,rock-cash.png,null,image,,,,,,,,,,,,,,,,,,,,
,,,,,image-keyboard-response,125,299102,0.0-4.0-2.2,1,2,2024-11-14 15:50:30,c57ef2a061322e91a272365c82d9e91a,185.156.245.18,"Mozilla/5.0 (Windows NT 10.0; Win64; x64) AppleWebKit/537.36 (KHTML, like Gecko) Chrome/130.0.0.0 Safari/537.36 Edg/130.0.0.0",WebKit,Edge,130.0.0.0,Windows,10.0,https://l19rbff638.cognition.run/?PROLIFIC_PID=5aa297fe1ade740001b94bb7,"en-GB,en;q=0.9,en-US;q=0.8",5aa297fe1ade740001b94bb7,799955869,,null,rock-cash.png,null,,,,,,,,,,,,,,,,,,,,,
,,,,,image-keyboard-response,126,299490,0.0-4.0-3.2,1,2,2024-11-14 15:50:30,c57ef2a061322e91a272365c82d9e91a,185.156.245.18,"Mozilla/5.0 (Windows NT 10.0; Win64; x64) AppleWebKit/537.36 (KHTML, like Gecko) Chrome/130.0.0.0 Safari/537.36 Edg/130.0.0.0",WebKit,Edge,130.0.0.0,Windows,10.0,https://l19rbff638.cognition.run/?PROLIFIC_PID=5aa297fe1ade740001b94bb7,"en-GB,en;q=0.9,en-US;q=0.8",5aa297fe1ade740001b94bb7,799955869,,386,rock-cash.png,l,target,,,,true,,cash,nuppical,novel,novel,L,practice,,,,,,,,,
,,,,,html-keyboard-response,127,301993,0.0-4.0-4.2,1,2,2024-11-14 15:50:30,c57ef2a061322e91a272365c82d9e91a,185.156.245.18,"Mozilla/5.0 (Windows NT 10.0; Win64; x64) AppleWebKit/537.36 (KHTML, like Gecko) Chrome/130.0.0.0 Safari/537.36 Edg/130.0.0.0",WebKit,Edge,130.0.0.0,Windows,10.0,https://l19rbff638.cognition.run/?PROLIFIC_PID=5aa297fe1ade740001b94bb7,"en-GB,en;q=0.9,en-US;q=0.8",5aa297fe1ade740001b94bb7,799955869,,null,<b>Correct</b>!,null,feedback,,,,,,,,,,,,,,,,,,,,
,,,,,html-keyboard-response,128,302496,0.0-4.0-0.3,1,2,2024-11-14 15:50:30,c57ef2a061322e91a272365c82d9e91a,185.156.245.18,"Mozilla/5.0 (Windows NT 10.0; Win64; x64) AppleWebKit/537.36 (KHTML, like Gecko) Chrome/130.0.0.0 Safari/537.36 Edg/130.0.0.0",WebKit,Edge,130.0.0.0,Windows,10.0,https://l19rbff638.cognition.run/?PROLIFIC_PID=5aa297fe1ade740001b94bb7,"en-GB,en;q=0.9,en-US;q=0.8",5aa297fe1ade740001b94bb7,799955869,,null,<span style = 'font-size:200%'>+</span>,null,fixation,,,,,,,,,,,,,,,,,,,,
,,,,,image-keyboard-response,129,302999,0.0-4.0-1.3,1,2,2024-11-14 15:50:30,c57ef2a061322e91a272365c82d9e91a,185.156.245.18,"Mozilla/5.0 (Windows NT 10.0; Win64; x64) AppleWebKit/537.36 (KHTML, like Gecko) Chrome/130.0.0.0 Safari/537.36 Edg/130.0.0.0",WebKit,Edge,130.0.0.0,Windows,10.0,https://l19rbff638.cognition.run/?PROLIFIC_PID=5aa297fe1ade740001b94bb7,"en-GB,en;q=0.9,en-US;q=0.8",5aa297fe1ade740001b94bb7,799955869,,null,rock-cash.png,null,image,,,,,,,,,,,,,,,,,,,,
,,,,,image-keyboard-response,130,303301,0.0-4.0-2.3,1,2,2024-11-14 15:50:30,c57ef2a061322e91a272365c82d9e91a,185.156.245.18,"Mozilla/5.0 (Windows NT 10.0; Win64; x64) AppleWebKit/537.36 (KHTML, like Gecko) Chrome/130.0.0.0 Safari/537.36 Edg/130.0.0.0",WebKit,Edge,130.0.0.0,Windows,10.0,https://l19rbff638.cognition.run/?PROLIFIC_PID=5aa297fe1ade740001b94bb7,"en-GB,en;q=0.9,en-US;q=0.8",5aa297fe1ade740001b94bb7,799955869,,null,rock-cash.png,null,,,,,,,,,,,,,,,,,,,,,
,,,,,image-keyboard-response,131,303779,0.0-4.0-3.3,1,2,2024-11-14 15:50:30,c57ef2a061322e91a272365c82d9e91a,185.156.245.18,"Mozilla/5.0 (Windows NT 10.0; Win64; x64) AppleWebKit/537.36 (KHTML, like Gecko) Chrome/130.0.0.0 Safari/537.36 Edg/130.0.0.0",WebKit,Edge,130.0.0.0,Windows,10.0,https://l19rbff638.cognition.run/?PROLIFIC_PID=5aa297fe1ade740001b94bb7,"en-GB,en;q=0.9,en-US;q=0.8",5aa297fe1ade740001b94bb7,799955869,,476,rock-cash.png,l,target,,,,true,,cash,boff,novel,novel,L,practice,,,,,,,,,
,,,,,html-keyboard-response,132,306281,0.0-4.0-4.3,1,2,2024-11-14 15:50:30,c57ef2a061322e91a272365c82d9e91a,185.156.245.18,"Mozilla/5.0 (Windows NT 10.0; Win64; x64) AppleWebKit/537.36 (KHTML, like Gecko) Chrome/130.0.0.0 Safari/537.36 Edg/130.0.0.0",WebKit,Edge,130.0.0.0,Windows,10.0,https://l19rbff638.cognition.run/?PROLIFIC_PID=5aa297fe1ade740001b94bb7,"en-GB,en;q=0.9,en-US;q=0.8",5aa297fe1ade740001b94bb7,799955869,,null,<b>Correct</b>!,null,feedback,,,,,,,,,,,,,,,,,,,,
,,,,,html-keyboard-response,133,306784,0.0-4.0-0.4,1,2,2024-11-14 15:50:30,c57ef2a061322e91a272365c82d9e91a,185.156.245.18,"Mozilla/5.0 (Windows NT 10.0; Win64; x64) AppleWebKit/537.36 (KHTML, like Gecko) Chrome/130.0.0.0 Safari/537.36 Edg/130.0.0.0",WebKit,Edge,130.0.0.0,Windows,10.0,https://l19rbff638.cognition.run/?PROLIFIC_PID=5aa297fe1ade740001b94bb7,"en-GB,en;q=0.9,en-US;q=0.8",5aa297fe1ade740001b94bb7,799955869,,null,<span style = 'font-size:200%'>+</span>,null,fixation,,,,,,,,,,,,,,,,,,,,
,,,,,image-keyboard-response,134,307287,0.0-4.0-1.4,1,2,2024-11-14 15:50:30,c57ef2a061322e91a272365c82d9e91a,185.156.245.18,"Mozilla/5.0 (Windows NT 10.0; Win64; x64) AppleWebKit/537.36 (KHTML, like Gecko) Chrome/130.0.0.0 Safari/537.36 Edg/130.0.0.0",WebKit,Edge,130.0.0.0,Windows,10.0,https://l19rbff638.cognition.run/?PROLIFIC_PID=5aa297fe1ade740001b94bb7,"en-GB,en;q=0.9,en-US;q=0.8",5aa297fe1ade740001b94bb7,799955869,,null,rock-cash.png,null,image,,,,,,,,,,,,,,,,,,,,
,,,,,image-keyboard-response,135,307590,0.0-4.0-2.4,1,2,2024-11-14 15:50:30,c57ef2a061322e91a272365c82d9e91a,185.156.245.18,"Mozilla/5.0 (Windows NT 10.0; Win64; x64) AppleWebKit/537.36 (KHTML, like Gecko) Chrome/130.0.0.0 Safari/537.36 Edg/130.0.0.0",WebKit,Edge,130.0.0.0,Windows,10.0,https://l19rbff638.cognition.run/?PROLIFIC_PID=5aa297fe1ade740001b94bb7,"en-GB,en;q=0.9,en-US;q=0.8",5aa297fe1ade740001b94bb7,799955869,,null,rock-cash.png,null,,,,,,,,,,,,,,,,,,,,,
,,,,,image-keyboard-response,136,308314,0.0-4.0-3.4,1,2,2024-11-14 15:50:30,c57ef2a061322e91a272365c82d9e91a,185.156.245.18,"Mozilla/5.0 (Windows NT 10.0; Win64; x64) AppleWebKit/537.36 (KHTML, like Gecko) Chrome/130.0.0.0 Safari/537.36 Edg/130.0.0.0",WebKit,Edge,130.0.0.0,Windows,10.0,https://l19rbff638.cognition.run/?PROLIFIC_PID=5aa297fe1ade740001b94bb7,"en-GB,en;q=0.9,en-US;q=0.8",5aa297fe1ade740001b94bb7,799955869,,723,rock-cash.png,a,target,,,,true,,rock,nuppical,novel,novel,A,practice,,,,,,,,,
,,,,,html-keyboard-response,137,310816,0.0-4.0-4.4,1,2,2024-11-14 15:50:30,c57ef2a061322e91a272365c82d9e91a,185.156.245.18,"Mozilla/5.0 (Windows NT 10.0; Win64; x64) AppleWebKit/537.36 (KHTML, like Gecko) Chrome/130.0.0.0 Safari/537.36 Edg/130.0.0.0",WebKit,Edge,130.0.0.0,Windows,10.0,https://l19rbff638.cognition.run/?PROLIFIC_PID=5aa297fe1ade740001b94bb7,"en-GB,en;q=0.9,en-US;q=0.8",5aa297fe1ade740001b94bb7,799955869,,null,<b>Correct</b>!,null,feedback,,,,,,,,,,,,,,,,,,,,
,,,,,html-keyboard-response,138,311319,0.0-4.0-0.5,1,2,2024-11-14 15:50:30,c57ef2a061322e91a272365c82d9e91a,185.156.245.18,"Mozilla/5.0 (Windows NT 10.0; Win64; x64) AppleWebKit/537.36 (KHTML, like Gecko) Chrome/130.0.0.0 Safari/537.36 Edg/130.0.0.0",WebKit,Edge,130.0.0.0,Windows,10.0,https://l19rbff638.cognition.run/?PROLIFIC_PID=5aa297fe1ade740001b94bb7,"en-GB,en;q=0.9,en-US;q=0.8",5aa297fe1ade740001b94bb7,799955869,,null,<span style = 'font-size:200%'>+</span>,null,fixation,,,,,,,,,,,,,,,,,,,,
,,,,,image-keyboard-response,139,311833,0.0-4.0-1.5,1,2,2024-11-14 15:50:30,c57ef2a061322e91a272365c82d9e91a,185.156.245.18,"Mozilla/5.0 (Windows NT 10.0; Win64; x64) AppleWebKit/537.36 (KHTML, like Gecko) Chrome/130.0.0.0 Safari/537.36 Edg/130.0.0.0",WebKit,Edge,130.0.0.0,Windows,10.0,https://l19rbff638.cognition.run/?PROLIFIC_PID=5aa297fe1ade740001b94bb7,"en-GB,en;q=0.9,en-US;q=0.8",5aa297fe1ade740001b94bb7,799955869,,null,rock-cash.png,null,image,,,,,,,,,,,,,,,,,,,,
,,,,,image-keyboard-response,140,312140,0.0-4.0-2.5,1,2,2024-11-14 15:50:30,c57ef2a061322e91a272365c82d9e91a,185.156.245.18,"Mozilla/5.0 (Windows NT 10.0; Win64; x64) AppleWebKit/537.36 (KHTML, like Gecko) Chrome/130.0.0.0 Safari/537.36 Edg/130.0.0.0",WebKit,Edge,130.0.0.0,Windows,10.0,https://l19rbff638.cognition.run/?PROLIFIC_PID=5aa297fe1ade740001b94bb7,"en-GB,en;q=0.9,en-US;q=0.8",5aa297fe1ade740001b94bb7,799955869,,null,rock-cash.png,null,,,,,,,,,,,,,,,,,,,,,
,,,,,image-keyboard-response,141,312546,0.0-4.0-3.5,1,2,2024-11-14 15:50:30,c57ef2a061322e91a272365c82d9e91a,185.156.245.18,"Mozilla/5.0 (Windows NT 10.0; Win64; x64) AppleWebKit/537.36 (KHTML, like Gecko) Chrome/130.0.0.0 Safari/537.36 Edg/130.0.0.0",WebKit,Edge,130.0.0.0,Windows,10.0,https://l19rbff638.cognition.run/?PROLIFIC_PID=5aa297fe1ade740001b94bb7,"en-GB,en;q=0.9,en-US;q=0.8",5aa297fe1ade740001b94bb7,799955869,,404,rock-cash.png,l,target,,,,true,,cash,nuppical,novel,novel,L,practice,,,,,,,,,
,,,,,html-keyboard-response,142,315049,0.0-4.0-4.5,1,2,2024-11-14 15:50:30,c57ef2a061322e91a272365c82d9e91a,185.156.245.18,"Mozilla/5.0 (Windows NT 10.0; Win64; x64) AppleWebKit/537.36 (KHTML, like Gecko) Chrome/130.0.0.0 Safari/537.36 Edg/130.0.0.0",WebKit,Edge,130.0.0.0,Windows,10.0,https://l19rbff638.cognition.run/?PROLIFIC_PID=5aa297fe1ade740001b94bb7,"en-GB,en;q=0.9,en-US;q=0.8",5aa297fe1ade740001b94bb7,799955869,,null,<b>Correct</b>!,null,feedback,,,,,,,,,,,,,,,,,,,,
,,,,,html-keyboard-response,143,315552,0.0-4.0-0.6,1,2,2024-11-14 15:50:30,c57ef2a061322e91a272365c82d9e91a,185.156.245.18,"Mozilla/5.0 (Windows NT 10.0; Win64; x64) AppleWebKit/537.36 (KHTML, like Gecko) Chrome/130.0.0.0 Safari/537.36 Edg/130.0.0.0",WebKit,Edge,130.0.0.0,Windows,10.0,https://l19rbff638.cognition.run/?PROLIFIC_PID=5aa297fe1ade740001b94bb7,"en-GB,en;q=0.9,en-US;q=0.8",5aa297fe1ade740001b94bb7,799955869,,null,<span style = 'font-size:200%'>+</span>,null,fixation,,,,,,,,,,,,,,,,,,,,
,,,,,image-keyboard-response,144,316055,0.0-4.0-1.6,1,2,2024-11-14 15:50:30,c57ef2a061322e91a272365c82d9e91a,185.156.245.18,"Mozilla/5.0 (Windows NT 10.0; Win64; x64) AppleWebKit/537.36 (KHTML, like Gecko) Chrome/130.0.0.0 Safari/537.36 Edg/130.0.0.0",WebKit,Edge,130.0.0.0,Windows,10.0,https://l19rbff638.cognition.run/?PROLIFIC_PID=5aa297fe1ade740001b94bb7,"en-GB,en;q=0.9,en-US;q=0.8",5aa297fe1ade740001b94bb7,799955869,,null,rock-cash.png,null,image,,,,,,,,,,,,,,,,,,,,
,,,,,image-keyboard-response,145,316358,0.0-4.0-2.6,1,2,2024-11-14 15:50:30,c57ef2a061322e91a272365c82d9e91a,185.156.245.18,"Mozilla/5.0 (Windows NT 10.0; Win64; x64) AppleWebKit/537.36 (KHTML, like Gecko) Chrome/130.0.0.0 Safari/537.36 Edg/130.0.0.0",WebKit,Edge,130.0.0.0,Windows,10.0,https://l19rbff638.cognition.run/?PROLIFIC_PID=5aa297fe1ade740001b94bb7,"en-GB,en;q=0.9,en-US;q=0.8",5aa297fe1ade740001b94bb7,799955869,,null,rock-cash.png,null,,,,,,,,,,,,,,,,,,,,,
,,,,,image-keyboard-response,146,316675,0.0-4.0-3.6,1,2,2024-11-14 15:50:30,c57ef2a061322e91a272365c82d9e91a,185.156.245.18,"Mozilla/5.0 (Windows NT 10.0; Win64; x64) AppleWebKit/537.36 (KHTML, like Gecko) Chrome/130.0.0.0 Safari/537.36 Edg/130.0.0.0",WebKit,Edge,130.0.0.0,Windows,10.0,https://l19rbff638.cognition.run/?PROLIFIC_PID=5aa297fe1ade740001b94bb7,"en-GB,en;q=0.9,en-US;q=0.8",5aa297fe1ade740001b94bb7,799955869,,315,rock-cash.png,a,target,,,,false,,cash,boff,novel,novel,L,practice,,,,,,,,,
,,,,,html-keyboard-response,147,319178,0.0-4.0-4.6,1,2,2024-11-14 15:50:30,c57ef2a061322e91a272365c82d9e91a,185.156.245.18,"Mozilla/5.0 (Windows NT 10.0; Win64; x64) AppleWebKit/537.36 (KHTML, like Gecko) Chrome/130.0.0.0 Safari/537.36 Edg/130.0.0.0",WebKit,Edge,130.0.0.0,Windows,10.0,https://l19rbff638.cognition.run/?PROLIFIC_PID=5aa297fe1ade740001b94bb7,"en-GB,en;q=0.9,en-US;q=0.8",5aa297fe1ade740001b94bb7,799955869,,null,"<b>Incorrect</b>! <br><br> Please press A if the second word matches the picture on the left, and L if the second word matches the picture on the right.",null,feedback,,,,,,,,,,,,,,,,,,,,
,,,,,html-keyboard-response,148,319681,0.0-5.0-0.0,1,2,2024-11-14 15:50:30,c57ef2a061322e91a272365c82d9e91a,185.156.245.18,"Mozilla/5.0 (Windows NT 10.0; Win64; x64) AppleWebKit/537.36 (KHTML, like Gecko) Chrome/130.0.0.0 Safari/537.36 Edg/130.0.0.0",WebKit,Edge,130.0.0.0,Windows,10.0,https://l19rbff638.cognition.run/?PROLIFIC_PID=5aa297fe1ade740001b94bb7,"en-GB,en;q=0.9,en-US;q=0.8",5aa297fe1ade740001b94bb7,799955869,,null,<span style = 'font-size:200%'>+</span>,null,fixation,,,,,,,,,,,,,,,,,,,,
,,,,,image-keyboard-response,149,320183,0.0-5.0-1.0,1,2,2024-11-14 15:50:30,c57ef2a061322e91a272365c82d9e91a,185.156.245.18,"Mozilla/5.0 (Windows NT 10.0; Win64; x64) AppleWebKit/537.36 (KHTML, like Gecko) Chrome/130.0.0.0 Safari/537.36 Edg/130.0.0.0",WebKit,Edge,130.0.0.0,Windows,10.0,https://l19rbff638.cognition.run/?PROLIFIC_PID=5aa297fe1ade740001b94bb7,"en-GB,en;q=0.9,en-US;q=0.8",5aa297fe1ade740001b94bb7,799955869,,null,cash-rock.png,null,image,,,,,,,,,,,,,,,,,,,,
,,,,,image-keyboard-response,150,320486,0.0-5.0-2.0,1,2,2024-11-14 15:50:30,c57ef2a061322e91a272365c82d9e91a,185.156.245.18,"Mozilla/5.0 (Windows NT 10.0; Win64; x64) AppleWebKit/537.36 (KHTML, like Gecko) Chrome/130.0.0.0 Safari/537.36 Edg/130.0.0.0",WebKit,Edge,130.0.0.0,Windows,10.0,https://l19rbff638.cognition.run/?PROLIFIC_PID=5aa297fe1ade740001b94bb7,"en-GB,en;q=0.9,en-US;q=0.8",5aa297fe1ade740001b94bb7,799955869,,null,cash-rock.png,null,,,,,,,,,,,,,,,,,,,,,
,,,,,image-keyboard-response,151,321242,0.0-5.0-3.0,1,2,2024-11-14 15:50:30,c57ef2a061322e91a272365c82d9e91a,185.156.245.18,"Mozilla/5.0 (Windows NT 10.0; Win64; x64) AppleWebKit/537.36 (KHTML, like Gecko) Chrome/130.0.0.0 Safari/537.36 Edg/130.0.0.0",WebKit,Edge,130.0.0.0,Windows,10.0,https://l19rbff638.cognition.run/?PROLIFIC_PID=5aa297fe1ade740001b94bb7,"en-GB,en;q=0.9,en-US;q=0.8",5aa297fe1ade740001b94bb7,799955869,,754,cash-rock.png,l,target,,,,true,,rock,nuppical,novel,novel,L,1,,,,,,,,,
,,,,,html-keyboard-response,152,321745,0.0-5.0-0.1,1,2,2024-11-14 15:50:30,c57ef2a061322e91a272365c82d9e91a,185.156.245.18,"Mozilla/5.0 (Windows NT 10.0; Win64; x64) AppleWebKit/537.36 (KHTML, like Gecko) Chrome/130.0.0.0 Safari/537.36 Edg/130.0.0.0",WebKit,Edge,130.0.0.0,Windows,10.0,https://l19rbff638.cognition.run/?PROLIFIC_PID=5aa297fe1ade740001b94bb7,"en-GB,en;q=0.9,en-US;q=0.8",5aa297fe1ade740001b94bb7,799955869,,null,<span style = 'font-size:200%'>+</span>,null,fixation,,,,,,,,,,,,,,,,,,,,
,,,,,image-keyboard-response,153,322247,0.0-5.0-1.1,1,2,2024-11-14 15:50:30,c57ef2a061322e91a272365c82d9e91a,185.156.245.18,"Mozilla/5.0 (Windows NT 10.0; Win64; x64) AppleWebKit/537.36 (KHTML, like Gecko) Chrome/130.0.0.0 Safari/537.36 Edg/130.0.0.0",WebKit,Edge,130.0.0.0,Windows,10.0,https://l19rbff638.cognition.run/?PROLIFIC_PID=5aa297fe1ade740001b94bb7,"en-GB,en;q=0.9,en-US;q=0.8",5aa297fe1ade740001b94bb7,799955869,,null,rock-cash.png,null,image,,,,,,,,,,,,,,,,,,,,
,,,,,image-keyboard-response,154,322549,0.0-5.0-2.1,1,2,2024-11-14 15:50:30,c57ef2a061322e91a272365c82d9e91a,185.156.245.18,"Mozilla/5.0 (Windows NT 10.0; Win64; x64) AppleWebKit/537.36 (KHTML, like Gecko) Chrome/130.0.0.0 Safari/537.36 Edg/130.0.0.0",WebKit,Edge,130.0.0.0,Windows,10.0,https://l19rbff638.cognition.run/?PROLIFIC_PID=5aa297fe1ade740001b94bb7,"en-GB,en;q=0.9,en-US;q=0.8",5aa297fe1ade740001b94bb7,799955869,,null,rock-cash.png,null,,,,,,,,,,,,,,,,,,,,,
,,,,,image-keyboard-response,155,323266,0.0-5.0-3.1,1,2,2024-11-14 15:50:30,c57ef2a061322e91a272365c82d9e91a,185.156.245.18,"Mozilla/5.0 (Windows NT 10.0; Win64; x64) AppleWebKit/537.36 (KHTML, like Gecko) Chrome/130.0.0.0 Safari/537.36 Edg/130.0.0.0",WebKit,Edge,130.0.0.0,Windows,10.0,https://l19rbff638.cognition.run/?PROLIFIC_PID=5aa297fe1ade740001b94bb7,"en-GB,en;q=0.9,en-US;q=0.8",5aa297fe1ade740001b94bb7,799955869,,715,rock-cash.png,a,target,,,,true,,rock,boff,novel,novel,A,1,,,,,,,,,
,,,,,html-keyboard-response,156,323768,0.0-5.0-0.2,1,2,2024-11-14 15:50:30,c57ef2a061322e91a272365c82d9e91a,185.156.245.18,"Mozilla/5.0 (Windows NT 10.0; Win64; x64) AppleWebKit/537.36 (KHTML, like Gecko) Chrome/130.0.0.0 Safari/537.36 Edg/130.0.0.0",WebKit,Edge,130.0.0.0,Windows,10.0,https://l19rbff638.cognition.run/?PROLIFIC_PID=5aa297fe1ade740001b94bb7,"en-GB,en;q=0.9,en-US;q=0.8",5aa297fe1ade740001b94bb7,799955869,,null,<span style = 'font-size:200%'>+</span>,null,fixation,,,,,,,,,,,,,,,,,,,,
,,,,,image-keyboard-response,157,324271,0.0-5.0-1.2,1,2,2024-11-14 15:50:30,c57ef2a061322e91a272365c82d9e91a,185.156.245.18,"Mozilla/5.0 (Windows NT 10.0; Win64; x64) AppleWebKit/537.36 (KHTML, like Gecko) Chrome/130.0.0.0 Safari/537.36 Edg/130.0.0.0",WebKit,Edge,130.0.0.0,Windows,10.0,https://l19rbff638.cognition.run/?PROLIFIC_PID=5aa297fe1ade740001b94bb7,"en-GB,en;q=0.9,en-US;q=0.8",5aa297fe1ade740001b94bb7,799955869,,null,rock-cash.png,null,image,,,,,,,,,,,,,,,,,,,,
,,,,,image-keyboard-response,158,324575,0.0-5.0-2.2,1,2,2024-11-14 15:50:30,c57ef2a061322e91a272365c82d9e91a,185.156.245.18,"Mozilla/5.0 (Windows NT 10.0; Win64; x64) AppleWebKit/537.36 (KHTML, like Gecko) Chrome/130.0.0.0 Safari/537.36 Edg/130.0.0.0",WebKit,Edge,130.0.0.0,Windows,10.0,https://l19rbff638.cognition.run/?PROLIFIC_PID=5aa297fe1ade740001b94bb7,"en-GB,en;q=0.9,en-US;q=0.8",5aa297fe1ade740001b94bb7,799955869,,null,rock-cash.png,null,,,,,,,,,,,,,,,,,,,,,
,,,,,image-keyboard-response,159,325970,0.0-5.0-3.2,1,2,2024-11-14 15:50:30,c57ef2a061322e91a272365c82d9e91a,185.156.245.18,"Mozilla/5.0 (Windows NT 10.0; Win64; x64) AppleWebKit/537.36 (KHTML, like Gecko) Chrome/130.0.0.0 Safari/537.36 Edg/130.0.0.0",WebKit,Edge,130.0.0.0,Windows,10.0,https://l19rbff638.cognition.run/?PROLIFIC_PID=5aa297fe1ade740001b94bb7,"en-GB,en;q=0.9,en-US;q=0.8",5aa297fe1ade740001b94bb7,799955869,,1393,rock-cash.png,a,target,,,,true,,rock,zock,direct,unrelated,A,1,,,,,,,,,
,,,,,html-keyboard-response,160,327474,0.0-5.0-4.2-0.2,1,2,2024-11-14 15:50:30,c57ef2a061322e91a272365c82d9e91a,185.156.245.18,"Mozilla/5.0 (Windows NT 10.0; Win64; x64) AppleWebKit/537.36 (KHTML, like Gecko) Chrome/130.0.0.0 Safari/537.36 Edg/130.0.0.0",WebKit,Edge,130.0.0.0,Windows,10.0,https://l19rbff638.cognition.run/?PROLIFIC_PID=5aa297fe1ade740001b94bb7,"en-GB,en;q=0.9,en-US;q=0.8",5aa297fe1ade740001b94bb7,799955869,,null,<br> Too slow!</b>! <br> Please try to respond faster.,null,fixation,,,,,,,,,,,,,,,,,,,,
,,,,,html-keyboard-response,161,327976,0.0-5.0-0.3,1,2,2024-11-14 15:50:30,c57ef2a061322e91a272365c82d9e91a,185.156.245.18,"Mozilla/5.0 (Windows NT 10.0; Win64; x64) AppleWebKit/537.36 (KHTML, like Gecko) Chrome/130.0.0.0 Safari/537.36 Edg/130.0.0.0",WebKit,Edge,130.0.0.0,Windows,10.0,https://l19rbff638.cognition.run/?PROLIFIC_PID=5aa297fe1ade740001b94bb7,"en-GB,en;q=0.9,en-US;q=0.8",5aa297fe1ade740001b94bb7,799955869,,null,<span style = 'font-size:200%'>+</span>,null,fixation,,,,,,,,,,,,,,,,,,,,
,,,,,image-keyboard-response,162,328480,0.0-5.0-1.3,1,2,2024-11-14 15:50:30,c57ef2a061322e91a272365c82d9e91a,185.156.245.18,"Mozilla/5.0 (Windows NT 10.0; Win64; x64) AppleWebKit/537.36 (KHTML, like Gecko) Chrome/130.0.0.0 Safari/537.36 Edg/130.0.0.0",WebKit,Edge,130.0.0.0,Windows,10.0,https://l19rbff638.cognition.run/?PROLIFIC_PID=5aa297fe1ade740001b94bb7,"en-GB,en;q=0.9,en-US;q=0.8",5aa297fe1ade740001b94bb7,799955869,,null,cash-rock.png,null,image,,,,,,,,,,,,,,,,,,,,
,,,,,image-keyboard-response,163,328783,0.0-5.0-2.3,1,2,2024-11-14 15:50:30,c57ef2a061322e91a272365c82d9e91a,185.156.245.18,"Mozilla/5.0 (Windows NT 10.0; Win64; x64) AppleWebKit/537.36 (KHTML, like Gecko) Chrome/130.0.0.0 Safari/537.36 Edg/130.0.0.0",WebKit,Edge,130.0.0.0,Windows,10.0,https://l19rbff638.cognition.run/?PROLIFIC_PID=5aa297fe1ade740001b94bb7,"en-GB,en;q=0.9,en-US;q=0.8",5aa297fe1ade740001b94bb7,799955869,,null,cash-rock.png,null,,,,,,,,,,,,,,,,,,,,,
,,,,,image-keyboard-response,164,329387,0.0-5.0-3.3,1,2,2024-11-14 15:50:30,c57ef2a061322e91a272365c82d9e91a,185.156.245.18,"Mozilla/5.0 (Windows NT 10.0; Win64; x64) AppleWebKit/537.36 (KHTML, like Gecko) Chrome/130.0.0.0 Safari/537.36 Edg/130.0.0.0",WebKit,Edge,130.0.0.0,Windows,10.0,https://l19rbff638.cognition.run/?PROLIFIC_PID=5aa297fe1ade740001b94bb7,"en-GB,en;q=0.9,en-US;q=0.8",5aa297fe1ade740001b94bb7,799955869,,603,cash-rock.png,l,target,,,,true,,rock,fash,direct,related,L,1,,,,,,,,,
,,,,,html-keyboard-response,165,329889,0.0-5.0-0.4,1,2,2024-11-14 15:50:30,c57ef2a061322e91a272365c82d9e91a,185.156.245.18,"Mozilla/5.0 (Windows NT 10.0; Win64; x64) AppleWebKit/537.36 (KHTML, like Gecko) Chrome/130.0.0.0 Safari/537.36 Edg/130.0.0.0",WebKit,Edge,130.0.0.0,Windows,10.0,https://l19rbff638.cognition.run/?PROLIFIC_PID=5aa297fe1ade740001b94bb7,"en-GB,en;q=0.9,en-US;q=0.8",5aa297fe1ade740001b94bb7,799955869,,null,<span style = 'font-size:200%'>+</span>,null,fixation,,,,,,,,,,,,,,,,,,,,
,,,,,image-keyboard-response,166,330393,0.0-5.0-1.4,1,2,2024-11-14 15:50:30,c57ef2a061322e91a272365c82d9e91a,185.156.245.18,"Mozilla/5.0 (Windows NT 10.0; Win64; x64) AppleWebKit/537.36 (KHTML, like Gecko) Chrome/130.0.0.0 Safari/537.36 Edg/130.0.0.0",WebKit,Edge,130.0.0.0,Windows,10.0,https://l19rbff638.cognition.run/?PROLIFIC_PID=5aa297fe1ade740001b94bb7,"en-GB,en;q=0.9,en-US;q=0.8",5aa297fe1ade740001b94bb7,799955869,,null,rock-cash.png,null,image,,,,,,,,,,,,,,,,,,,,
